# sampling frequency: 40
# units are seconds/meters/radians/a.u.
seg1_acc_x,seg1_acc_y,seg1_acc_z,seg1_gyr_x,seg1_gyr_y,seg1_gyr_z,seg1_mag_x,seg1_mag_y,seg1_mag_z,seg2_acc_x,seg2_acc_y,seg2_acc_z,seg2_gyr_x,seg2_gyr_y,seg2_gyr_z,seg2_mag_x,seg2_mag_y,seg2_mag_z,seg3_acc_x,seg3_acc_y,seg3_acc_z,seg3_gyr_x,seg3_gyr_y,seg3_gyr_z,seg3_mag_x,seg3_mag_y,seg3_mag_z,seg4_acc_x,seg4_acc_y,seg4_acc_z,seg4_gyr_x,seg4_gyr_y,seg4_gyr_z,seg4_mag_x,seg4_mag_y,seg4_mag_z,seg5_acc_x,seg5_acc_y,seg5_acc_z,seg5_gyr_x,seg5_gyr_y,seg5_gyr_z,seg5_mag_x,seg5_mag_y,seg5_mag_z
2.295192689090005,-6.194264579545733,7.203595303508375,-0.002093611485289146,0.0002679929940056108,0.010088379191120309,-0.5468308085888022,-0.08565943654722027,0.07284809577147186,-0.03861432985537144,7.5806881579329,6.201709552694378,-0.010224248289013608,-0.0027105962430992226,-0.00919642348587203,0.27805895382799795,0.35681688003062323,0.610039573015793,-1.1762382778691896,-6.029246559360864,7.548930614055444,-0.007937166979136462,0.0009279482994804408,0.0023707516316133007,0.6992481775207761,0.15462859110302063,-0.33520855062538035,1.2886614376886765,-6.050816738986205,7.698875063427612,-0.006407989683997222,-0.0011857656657128484,0.006015565642215347,0.06509220086000625,0.4371569296012852,-0.807142802940581,0.2818905424296643,-6.1379057225451215,7.715297059769154,-0.00611344722375588,-0.0008170156303008515,-0.005708533831221079,-0.28461399564978385,0.4384122460219918,-0.4052119056064584
2.2928617662925648,-6.157428829449843,7.17953934832498,-0.003350899756294558,0.00042115216607778363,0.012938566986968575,-0.5461143506119698,-0.09176062731977172,0.07039797881010726,-0.06314018598286919,7.575287687086645,6.208671676354011,-0.012417293527400612,-0.0040945538337739795,-0.01091899539136736,0.27388785687545797,0.3604456123601898,0.6083086836799688,-1.177487306933949,-6.025080739002309,7.539732000891731,-0.009536053380360317,0.00012083182810074783,0.0028259650734282597,0.6953219158628291,0.1553136574863295,-0.3388579420052951,1.2853820311297577,-6.057432107176228,7.657960674573179,-0.007164351993020559,-0.0007724909439576365,0.005960356387130369,0.06236883236941474,0.4398692060989631,-0.8102604216255066,0.27411926023046307,-6.127907465736593,7.697342741631973,-0.007032813693194126,0.004867353729993485,-0.0014035163782228207,-0.2870594500790638,0.43916868399288744,-0.4069038099271876
2.294711451115139,-6.205739858221114,7.204217962591555,-0.002808796034069294,7.429537179789921e-05,0.011331633908520253,-0.5546804370554852,-0.08833272898097147,0.06555906219364492,-0.058298780550282384,7.568409626123967,6.237256565838335,-0.010495208521155817,-0.001997238574357865,-0.009411977166066399,0.2727254817077675,0.35418346018524327,0.6142708744775992,-1.1667932848865272,-6.047061233827535,7.534535533082972,-0.005079442649362945,0.002722759858442961,0.002039051280641173,0.6924328234788354,0.15368935558172922,-0.33149850279300036,1.2734463752030258,-6.090991410114239,7.635676379926196,-0.003938759464013967,0.003381498337089466,0.006080701265553308,0.06171915316270302,0.4339951234442843,-0.8034289403882955,0.2679756584763933,-6.0932428844980615,7.661017759993373,-0.007539939197303388,0.002323318136639301,-0.003514249100011384,-0.29387350008078894,0.4372833946363582,-0.40099626292219925
2.286037004349853,-6.203955876898903,7.172335717705754,-0.0023194578514619825,0.0017495129394641301,0.010762841992240662,-0.5556450948413427,-0.09810150805793932,0.06921665247982778,-0.06730338850652595,7.559243353785885,6.2175633738680505,-0.007583179473647615,-0.001779790545510234,-0.011165103568017712,0.26337676429117163,0.35746086579763836,0.6059925471032753,-1.1721377847396504,-6.031667825813555,7.558113184875191,-0.0016647590316148768,0.004207844145593815,0.002951151302974578,0.6833679245095257,0.151409320815212,-0.3377702932183638,1.2997384061868766,-6.070097726727183,7.669398441951905,0.001331698366774394,0.00748073268535011,0.004412870035505799,0.05036135417132527,0.43433595834784167,-0.8105491683088032,0.2808562838926258,-6.161221696139317,7.722340422221373,-0.008105652020412864,0.0007628987213431387,-0.004677464148975371,-0.2983443719453628,0.43635206979014246,-0.4104873652713146
2.301996079983352,-6.17644833039275,7.177062991670331,0.0006330639963272245,0.0013653100938275633,0.011124371951901229,-0.548327908307619,-0.09029084939795126,0.06674788385400521,-0.03757058844448256,7.581270665245495,6.208726749720112,-0.007007785391437692,-0.003466186716254944,-0.00970724191290246,0.2722364471118616,0.3632483097905321,0.6163368930635519,-1.170110519796635,-6.048341834903007,7.5575505146914095,-0.00019130267075262807,0.004244441815987843,0.003223834201514824,0.6926749183620795,0.16004582857108754,-0.3308423243088474,1.2840029140434233,-6.075461234618257,7.707468489024448,0.0032172175004995295,0.007412855272577092,0.00517093814141163,0.059092323945848874,0.4406027780351632,-0.8026291609980138,0.2726995021844505,-6.12937257185306,7.707791779729248,-0.002489744908362637,0.004620085703467186,-0.0025212791166192685,-0.2894270274635424,0.4423663307309918,-0.4007828550452434
2.2912851662737848,-6.1760987298763705,7.203199841461099,-0.00232045179274645,0.0017515126384904994,0.010763848612589636,-0.5512933584617267,-0.09101521110167235,0.059437304499009816,-0.05835955289117282,7.5855877032404235,6.201470013457536,-0.009124699218840928,-0.002548850982321973,-0.012041783623516909,0.2712241442567186,0.3572962915985471,0.610329605208642,-1.1684303375098868,-6.030816801671826,7.569855174610696,-0.001538324560067414,0.004979375620728989,0.0022242376167089686,0.6906980997887544,0.15314186982717976,-0.3363661004620398,1.3034890089962812,-6.059425135542779,7.730724709545624,-0.0011117702102884208,0.004845646543336034,0.004949067142055238,0.05798168607489161,0.435743010764617,-0.8082404727515813,0.28337599397840907,-6.1108328806838355,7.698043625784869,-0.0043061438891789025,0.0032521511979069395,-0.004330762449227579,-0.2916898113626108,0.43799471918731153,-0.4039415165556427
2.3210277109407125,-6.192327074048045,7.170243173195306,-0.006175153681416944,0.002388222252424573,0.012633893322484041,-0.5502534356716251,-0.08565638322295248,0.0718884528539561,-0.04888352793107438,7.558756907089179,6.217743448830744,-0.012903255786084368,-0.003168132478567629,-0.00929079203927874,0.26635139442559835,0.34995715205992034,0.6099887989353978,-1.1707325849745365,-6.060883359234589,7.57210120887948,-0.009662491528075304,-0.0006466999312516888,0.0035528312187313384,0.6899670822698888,0.14922971903734575,-0.33680370026175704,1.3141199577320533,-6.1119245062699035,7.721589542594045,-0.008056672367029548,0.00023258897566227812,0.00524322341110341,0.05477965147876885,0.4289255826609271,-0.8072259041258828,0.2920855759579169,-6.15309990035813,7.705083319712519,-0.010768922220399452,0.003511552964108805,-0.003311600065111359,-0.2954449932337053,0.4307068313059783,-0.4068460076202044
2.291548738732802,-6.217520742125594,7.212734253440029,-0.0017752789708947254,0.002349854573077035,0.01218381393738791,-0.5495468857821769,-0.08711608422314106,0.06675665889435786,-0.0803358260457179,7.588676848703704,6.218765272245525,-0.009991228634756006,-0.002949684562330344,-0.011043933327885573,0.276159251088968,0.3588753181287358,0.617348701287999,-1.1949788102603507,-6.043525929954763,7.550518074649592,-0.0046327147539958115,0.0016612057496758026,0.0007021627057552879,0.6985239087439784,0.15513624958620442,-0.3335015557210506,1.2746858833034427,-6.069522108964732,7.705682002063427,-0.0026927376404906433,-0.0007246588375920669,0.005597142714687969,0.06468754677832454,0.4351914191377741,-0.8017694410793245,0.2644555823076542,-6.108014968727577,7.685711648959723,-0.004408427616464763,0.004634209291375538,-0.0026188864416235073,-0.28605453682280285,0.437449468938517,-0.4003188141075824
2.2658517887493765,-6.166720285894488,7.195259062961504,-0.0008750880780660868,0.0020993472040882785,0.009954250658503297,-0.5510448277460555,-0.0949227215190082,0.06089750716363538,-0.0745316308026959,7.562644582441411,6.177833273982187,-0.008121941466550382,-0.001875671706699792,-0.009744285733834745,0.2624719448912697,0.35710578377534774,0.6150391502011795,-1.1913610187455304,-5.997515229783747,7.559277342845521,-0.00313721096129127,0.004172259149349296,0.0026794510585239277,0.6841552642393387,0.15544629287703557,-0.3268355866049282,1.2832492173578958,-6.05633629702431,7.6574731219857535,-0.0026908759873178695,0.0037364976971800594,0.0048721400205499225,0.05153505715086423,0.4369858383799,-0.8005507769816185,0.24684873734429943,-6.119201675545571,7.663787049943898,-0.004973140513600795,0.0030737799106571656,-0.0037821084718477928,-0.29874275182194443,0.43781992530108027,-0.3997411946662598
2.302941356819935,-6.188934702412555,7.1724858297237475,-0.0048998858057287785,0.0021945033013156157,0.011457601771371376,-0.550036217130754,-0.10030112888995675,0.06821177983963177,-0.04097605775537826,7.5838262756640065,6.226311627148213,-0.011478801676837352,-0.004217057667972599,-0.009862316699884948,0.2705327782046429,0.35443542727000416,0.6150162716439356,-1.1744318224699253,-6.052004895919922,7.553946945878112,-0.0041639429537446235,0.003072095622291788,0.0010689034406606282,0.6924250000993665,0.152205139586784,-0.33318995739631746,1.2972639380566966,-6.0898735045345145,7.698743437736327,-0.0022517070654685142,0.006429868044380344,0.005486295400648389,0.056841968735727236,0.432804716042939,-0.8026117370573629,0.273253197877737,-6.115766156830729,7.693046739297993,-0.00809480100189055,0.0015298356498439304,-0.005077482902409256,-0.29198658273432043,0.4311612990303498,-0.401742985975605
2.328623919713982,-6.22405475011698,7.2262960718941045,-0.004713884887653963,0.001749298610464773,0.010470287514551526,-0.5536636335846709,-0.09737517385973121,0.07506792139527009,-0.037509445081974103,7.563152589451356,6.237937377272547,-0.010211373330874995,-0.0012099836850798448,-0.01104914585745593,0.26442113289842495,0.358082514610813,0.6147654039905877,-1.1634849520374428,-6.0450168935108355,7.569886484236077,-0.00450399587241894,0.003251662419544286,0.0016466419436406174,0.6897437219848048,0.1571048156539059,-0.3315246877155615,1.3235555730757569,-6.069388096551358,7.732206260417449,-0.0040717001246068476,0.00397328048431991,0.005419723451265676,0.055135034032775546,0.43892648372219945,-0.8047613964259658,0.29089377021727675,-6.155724319491447,7.714599642914747,-0.007423738583608159,0.00036009572135676566,-0.005411277345849874,-0.29460110623193486,0.4402208512400775,-0.40440901122673045
2.2867336192145165,-6.1813434315980125,7.196257655550431,-0.0002760812264476119,0.0016198147628457339,0.01336298186373349,-0.5475796909146426,-0.09786438325555814,0.07113232973011423,-0.08656511176375778,7.582514910548423,6.226192567689597,-0.008490503887778344,-0.0032179482935067454,-0.010377508685225845,0.2736083535650654,0.3620921316101645,0.6041347322836368,-1.178658199901997,-6.0427694504202485,7.560566374269163,-0.005097919557457678,0.0018901652692189328,0.003678189424258767,0.694801414673695,0.1581791698883365,-0.3442606801246244,1.2897593874895577,-6.0699180008007945,7.707483465969619,-0.002717321858651884,0.003133601859891684,0.008076368199888863,0.061077357322242634,0.43915620254305415,-0.8139019360263835,0.251932807890181,-6.156598997877035,7.709534419694749,-0.0032332484271350975,0.00600553474041272,-0.0008389273449616102,-0.2861214991109222,0.44013650404126226,-0.4137454400206175
2.2493037031481355,-6.158239361665353,7.227206438802934,-0.0008590995196615512,0.0020577868262442655,0.011630155518867874,-0.5517534917815001,-0.091264341653978,0.06529834299879314,-0.08107844014491175,7.586797718859035,6.2056992007499865,-0.009482121437661261,-0.005424783092501731,-0.010827979333225202,0.26904776821302834,0.36051695463862754,0.6137170121665835,-1.2151185713566808,-6.010466452569567,7.575224149995557,-0.002814626843358305,0.0031571107212395423,0.0037418808942136575,0.6880249421140117,0.15634818495111985,-0.3334596346748753,1.2491861657110146,-6.083826783493667,7.711513685381965,-0.0004613728473492543,0.0024931405064239605,0.00567457359728085,0.05731397388323842,0.4374482328783498,-0.8052929682185984,0.21599519219626667,-6.064216657113845,7.6747864836502835,-0.0031418167290167913,0.003858539880199634,-0.0021537844911177213,-0.2924042354355191,0.4387338500332612,-0.40247142919884554
2.3229918126483224,-6.1961235769678105,7.158630120622345,-0.008200655646059632,0.000555401667030936,0.007337814726675069,-0.5605584558897687,-0.1000457750268284,0.06313526972904666,-0.042192391475262825,7.557363341455823,6.221901783684412,-0.014858573447520765,-0.0007144400903203842,-0.009148133332105185,0.27344134596692254,0.364688852768465,0.6145968147096262,-1.1535893989873447,-6.039022164588722,7.560312302235349,-0.007899921048749264,0.0034271074564691346,0.0007677004007697097,0.6960814554889008,0.16246925817878582,-0.3325985645373239,1.3106753252151344,-6.076924442551277,7.730126984337066,-0.005942593597311447,0.006575688035267679,0.00269453840203299,0.06209207921526391,0.44399314446535926,-0.799987594456619,0.28458960274029904,-6.114687896533457,7.682564441194838,-0.012296163119104978,-0.004882540036636833,-0.009252814076755295,-0.28721874068507947,0.44527451497967535,-0.403484083262143
2.3103498070691355,-6.213909748426785,7.212855706804218,-0.006525297779489873,0.0013121131454678,0.011909560318604342,-0.5475942706249559,-0.09322198679893819,0.06747366432157939,-0.029069378058533005,7.570738083002459,6.267200865004292,-0.011123705169639746,-0.0026441507844213383,-0.010261571513573056,0.2661107755578095,0.36123273386585614,0.6129960771895859,-1.1395333370106626,-6.077738894118895,7.554683754092609,-0.0075786311667021,0.0015920109798693543,0.00015674399212405933,0.6833907191521492,0.1565969165751255,-0.33270466506027774,1.3226442729589638,-6.081064442135322,7.731211039386216,-0.0065161909250068374,0.0013402068853251737,0.005953944518836696,0.05464439014247896,0.439174466511394,-0.8049958939934968,0.3176713474673601,-6.1971688137549075,7.747631913876063,-0.011283097360408197,0.0023186585078293263,-0.005639171275960701,-0.298460823940442,0.4436774577156108,-0.4026727244174913
2.2915655802579313,-6.181615051189584,7.1979463190078405,-0.0006581960418394486,0.0006218245586591748,0.009288834490330593,-0.5478417842377082,-0.08955870359545469,0.06625823304726643,-0.07987272688046655,7.5741996814708905,6.195092052099625,-0.0083103071007854,-0.0044753693815191955,-0.01243446330927058,0.27146679276901375,0.3590091693487342,0.6105462258733872,-1.1920781871719468,-6.025601592265667,7.536921235380618,-0.005224349583005018,0.0011196456130343959,0.004406091140202177,0.6914245910913898,0.15484267091730372,-0.33712228498914154,1.2856454556416703,-6.051904215891768,7.676170254811989,-0.004366855175205936,8.979034451939231e-05,0.008030007694442655,0.06044258425685754,0.43938927493582963,-0.8085179592048148,0.25516236372066786,-6.137466834490222,7.686709983770108,-0.0038587710220177873,0.008894930227757256,-0.001880334662491239,-0.2902251818454479,0.4401772869594969,-0.4071256284094055
2.264053129213499,-6.16630709084787,7.159522622963547,-0.001049070436125929,0.0025049884609107806,0.012623490683275779,-0.5508167759725787,-0.09955915341721287,0.057962079146816614,-0.061833985724758504,7.568156839274258,6.227445430063972,-0.01044770140967591,-0.002278906908634194,-0.008386004445266848,0.2739196107603407,0.3597718979876672,0.6122250289960832,-1.1825506756276782,-6.007176033078765,7.537131057743031,-0.004397320895726122,0.002369675108029625,0.0008874918717347212,0.6926365537403913,0.1575150065671882,-0.3383816684540885,1.2667826441572345,-6.076964645766821,7.66312993152688,-0.002822805628259701,0.00432727022243521,0.004212141237789977,0.058003655044021045,0.43769451693707134,-0.8077460326406798,0.24057781866752223,-6.055407512430984,7.635111678499771,-0.001821651359994616,0.0034513753605108265,-0.002852052671934466,-0.29071241736896625,0.4404261592027143,-0.4073662113497355
2.3134391764195783,-6.202981140642707,7.214417095262721,-0.004772681591611032,0.0028331696278798804,0.008488551012084226,-0.5463945186004544,-0.0954159012672831,0.06331584224923291,-0.056004197642559005,7.574138237845523,6.25093429744936,-0.01134583046103863,-0.0009064234403675499,-0.010264738949243677,0.27562776961586766,0.353158216882737,0.610601070386212,-1.1809674231433387,-6.059245550601472,7.5471205202672795,-0.002902805439081427,0.004879751503568466,0.0028667973151690674,0.6989945198864703,0.14800201311003514,-0.3380586421866181,1.2959093445115517,-6.091203620985226,7.677246281097483,-0.00016623575324817416,0.006376633594065008,0.0030632895196803715,0.06307099967176924,0.43351531032744783,-0.8095586441648933,0.28042010209508994,-6.140122322918455,7.723570333245076,-0.010453978350211758,-0.003329843188253412,-0.008024508832006241,-0.28614506489724173,0.43281225161060805,-0.406665740381101
2.3055140054978294,-6.18940898219107,7.189406288921767,-0.0030655364897260694,0.001610368407085315,0.010348275393688528,-0.5546757654325559,-0.08833363566522859,0.06653605060394611,-0.05116518870735513,7.577418410293354,6.208723838292446,-0.007658789381754856,-0.0038604871286281963,-0.01158957131802618,0.2683507617257834,0.34857946268490625,0.6156095783639934,-1.160265381416153,-6.032594056022326,7.5643330310087045,-0.0016647340444886243,0.004209903453509946,0.002956127107085482,0.6917114979614059,0.14637396535159342,-0.3306745827248272,1.3141740377272402,-6.075317615118843,7.710172592405463,0.0018115977721956278,0.005712453631979867,0.00511715673145311,0.05943200178133268,0.4264485245916347,-0.8056074780436697,0.2991102076979451,-6.17471053568987,7.736950178492065,-0.007556023348924623,0.005023620005826169,-0.003942912272365316,-0.2917542872685286,0.43066997668771195,-0.4027206741529897
2.2835765379539192,-6.185646144421778,7.197022767483536,0.00043215248523815445,0.0018155075016873423,0.012129762353023222,-0.5419358789167477,-0.10177979959842193,0.07744878458980035,-0.05917493246004924,7.5812902470708705,6.1839089081497995,-0.00882673947052997,-0.003295276077818636,-0.011833948195354944,0.2770962427135309,0.3573321874385635,0.6119926545771732,-1.186208619214335,-6.015117287827116,7.56714065758606,-0.004971476193909971,0.0026637203822553793,0.0029532517973487596,0.6992529706743749,0.15512817296335296,-0.33423743374749926,1.2669927892414767,-6.0590026608611085,7.70383684723282,-0.002466683522213762,0.00255243433358546,0.006823947052401071,0.06757211585915167,0.4376227957179527,-0.8052326439528644,0.25511413577257597,-6.120190492444397,7.6865108190626525,-0.0025106004712194306,0.005205319323521248,-0.002333078012859636,-0.2841089848084343,0.4384071703801034,-0.40277337197167323
2.2884030131849125,-6.207861070009526,7.178490853281936,-0.00026913715713648543,0.0006340547852305119,0.012017017879656117,-0.5485371938110429,-0.0907854926673529,0.07407251241892863,-0.081470317885797,7.561573854034963,6.230467605869678,-0.009895925042443864,-0.0021990306052737845,-0.009808685230519002,0.26460864978327653,0.35772984173276945,0.6074441672604315,-1.1892547578701962,-6.039573383473596,7.561372292564716,-0.007703779524531409,0.0016434154500563074,0.0025560083520847175,0.6865226418715592,0.15234832575944018,-0.34121667640663517,1.2802977930193316,-6.098046892335921,7.695113395392369,-0.006797702174052303,-8.74936320987907e-06,0.006598129629033368,0.05306564577594919,0.43724788783376556,-0.8105891506319909,0.25738958202367346,-6.10401294084332,7.662168749418663,-0.00499204407904325,0.0036569940472877985,-0.0035979212680367027,-0.294670231192414,0.43704747627344354,-0.40977993573383154
2.291907470964256,-6.18251267641362,7.200549882086029,-0.006396101886352053,0.0019527800702112865,0.00893850186870201,-0.5510259273940117,-0.09272912134065228,0.06456149597833029,-0.04800678972720975,7.592391812416657,6.208974201500809,-0.013701052962522676,-0.0010599844631856397,-0.00993409415376931,0.27269377215098767,0.3558377003746306,0.6105839504344672,-1.1824267890723668,-6.039329479031451,7.548550669316509,-0.007559146449672558,0.00243364145481827,-0.0014795067494921333,0.6926458719016043,0.15166413831910883,-0.3375790833087686,1.2847058846243553,-6.072312415663794,7.695271128754523,-0.005252634854643139,0.004228720865934167,0.0027812450308811413,0.05947599197671791,0.4342617538037061,-0.8060733129310973,0.27377390217715347,-6.114432270750933,7.692527207818005,-0.010638841598395255,0.0009641664630171794,-0.005394780577173424,-0.29028064952908206,0.43358548682505493,-0.4056607791599458
2.306276395301534,-6.194965104080616,7.1619861619648075,-0.005064933400606006,0.0016223861029630005,0.0127778756833966,-0.5588321203341415,-0.08369021864615116,0.06460721097375217,-0.054274185208827444,7.568270987306029,6.229850297708184,-0.011177853969987982,-0.004969521450181082,-0.009657414932672926,0.2704622804000187,0.3584649177064881,0.6068996299195628,-1.1675466257969631,-6.042951968853446,7.5321515127715255,-0.0053138144416555785,0.002025361913720251,0.0018595854909371765,0.6926365910664988,0.15604720950055248,-0.33860823581665944,1.306453697310693,-6.070567273490835,7.688212589871997,-0.0025878263798654196,0.001214588022017626,0.004923863987199885,0.05790278522264273,0.43575596357590407,-0.8126337452084401,0.3024472158732958,-6.171067024305627,7.703353382049093,-0.011902416515316884,0.0003887347728578726,-0.005645016064838343,-0.28975569922253064,0.43797549038074124,-0.4066400855250398
2.298733664030314,-6.2039676788443225,7.189382198623311,0.0012120797171441627,-5.7425244707990945e-05,0.011522287711238508,-0.5495267976182143,-0.0885851619902251,0.07115025161329848,-0.057828190336820504,7.582203309459243,6.213560021007978,-0.008175217959139744,-0.0026823935997069446,-0.010989026430799511,0.2775494402495012,0.36314510236512243,0.6087280521434948,-1.177328952324605,-6.040215824714301,7.55915476007544,-0.0024943325004967523,0.0013230252083915258,0.0031319178908340147,0.6982317864483621,0.15894406437735836,-0.3418469734505997,1.2933963133868684,-6.068422174266486,7.67623239453204,-0.0033837836796762793,0.001625332639326424,0.005504463536140163,0.06502104697909364,0.4415673639821227,-0.8127444515102039,0.27325825066700854,-6.136915381984289,7.700182037390805,4.0332313706677015e-05,0.006539964940141966,-0.0024127712046907697,-0.283147417709709,0.4418158805645927,-0.4098599604734001
2.28645584168997,-6.1739998475641995,7.206631921894862,-0.0012928441617912944,0.004034058900720815,0.01163406359613172,-0.552474253447334,-0.09566059809538445,0.06822774428957877,-0.0709120853960632,7.563895810705579,6.207270648506426,-0.008475627097494021,-0.0017183320625155827,-0.012230231773239458,0.26905443259228395,0.3509751968777227,0.6123939549424764,-1.1804433369332388,-6.023574165594527,7.534951540222479,-0.005312524651769901,0.002844298143259641,0.003531983705594756,0.6953613578158471,0.1495305515450031,-0.33244084647820976,1.2835810703963433,-6.07459364284311,7.67467019075382,-0.0030842666609840154,0.00683706248124548,0.006702646998872007,0.061478423225835785,0.43057453147550284,-0.8019694594255548,0.2563772818778607,-6.093103435851901,7.669338940159292,-0.0038019540474252137,0.004445145134357859,-0.0020011214745141504,-0.28926549994866163,0.43381929231170047,-0.40054072053491163
2.276320884951753,-6.180734460299951,7.189357928372403,-0.004522839241580188,0.0012755311647409606,0.011168942628673356,-0.5461503517567199,-0.08223147685282399,0.06161789012628143,-0.0613248727167655,7.579397806134669,6.216948488128902,-0.010553793184810572,-0.0041079611199812925,-0.009840130377640734,0.2695152895262732,0.3592533010160368,0.610801795477592,-1.1829851534361082,-6.0533514150580245,7.537324430707608,-0.0029235640000799235,0.0032252319327740753,0.00283457819035762,0.6909483853180324,0.15486837592113414,-0.3349228486262979,1.2919163386551178,-6.11318414620643,7.695605226225961,0.0005525356477917282,0.005958812471753327,0.0037552658074224764,0.05922330023881226,0.43621993581068924,-0.8072842035591566,0.2642033633583052,-6.105695331683504,7.685236599925044,-0.010033435055941122,0.0021251837872261143,-0.004994895979770053,-0.2914409661210816,0.4384802633902907,-0.4039432114661562
2.2964767009217635,-6.2045022917421235,7.1969935846716035,-0.0048660375644935866,0.00018942694617434365,0.010434567017993626,-0.5475946963704215,-0.10127888842397426,0.06844320082075407,-0.056587459092180555,7.571680327275299,6.223424571374567,-0.009683265982587388,-0.003710134982391024,-0.010838967078227716,0.27002299486516884,0.3548824944780945,0.6123281933604316,-1.1773481347908783,-6.024531191450176,7.569801278445449,-0.003820578963854436,0.0037175257886752915,0.002168480664310178,0.6894872210447407,0.15071741793019627,-0.33486564964094995,1.282307251550206,-6.056737899389613,7.734570618066736,-0.0005248992900062147,0.005017592077394927,0.0049830414889116305,0.058514481209352695,0.43328773042824603,-0.804838714409999,0.2828890563895977,-6.161825513408247,7.69535952190872,-0.007458563893744576,0.0015274943967928745,-0.005046923767077933,-0.2946619373951976,0.43411715436373877,-0.4044091177590318
2.315240383762622,-6.198261298333216,7.19606164501815,0.0009394129518372113,0.002500961894941715,0.010210950196038076,-0.5456179734439321,-0.089321069220278,0.07161888379668295,-0.03405148155755116,7.586930332703752,6.215400999788868,-0.008622329029695645,-0.0007235616679900524,-0.009144478476998194,0.2785209636624132,0.359463422276584,0.6073101596991171,-1.1590555798093494,-6.050125238255,7.561131713842757,-0.005761530822291844,0.0030919504820318155,0.003199419759963406,0.70044098012355,0.15530062323369437,-0.34035037800153345,1.304884368173682,-6.076496594550633,7.73765047658684,-0.003969679493303454,0.001452383378973298,0.005469468551964454,0.06702569433990507,0.438857834746847,-0.8088817956516037,0.29219156797864054,-6.1411302564971955,7.69902447382127,-0.001873338499188495,0.005201967719581185,-0.0022975259980887123,-0.28317126942219994,0.44010705045700377,-0.4108369664914005
2.2831361993959596,-6.163804892071533,7.2208494249647535,-0.0034165916825034037,0.001480456829496484,0.01265486079935476,-0.5453412729464713,-0.09299001711230342,0.0789382426620691,-0.06202615055246581,7.5841772826773015,6.208905585084878,-0.010921494864802482,-0.003929604060228365,-0.012323280238959502,0.26832853664803896,0.3502518820601562,0.6131424819979777,-1.1702009343889435,-6.029838314476717,7.540326527376174,-0.006679318604107099,0.0019276892392324151,0.0024981271348304807,0.6894883805209853,0.14802870762088016,-0.33507770512470825,1.2880407242439935,-6.079982452278899,7.695027596345493,-0.007081255720835508,-0.0013586862874049057,0.007240348195256376,0.05917770644238928,0.4301178186227001,-0.8075454161732755,0.25314546358135515,-6.093012632513651,7.692761079328296,-0.006290426348929462,0.00424796073412313,-0.003479803291860337,-0.29102280668878927,0.43188378135903316,-0.40467872251330733
2.279961572583534,-6.192494329034063,7.1845555495947275,-0.006744170826082988,0.0018238693911473024,0.011242073888417877,-0.547332466167186,-0.09249231319839323,0.0708911301754775,-0.06440421548057595,7.569467641215404,6.216061271233677,-0.012584251959590786,-0.00395457528974342,-0.009086524412297927,0.27170833484077533,0.3572898886523933,0.6098378669849991,-1.1935938575182192,-6.0303395364994525,7.566183190849092,-0.007000889398853966,0.002945873979392951,0.0014386560125859479,0.6918998460830507,0.15407920456800966,-0.33980198512654447,1.2924826533776044,-6.067678393491023,7.67531584145364,-0.005330825020253265,0.0042236539561100956,0.004052844663008602,0.058687263048129504,0.43574242132148244,-0.8097173887232578,0.26404842399412964,-6.110784969823823,7.6811961401252145,-0.01271145804732479,0.0006317530860845546,-0.0024082683300090204,-0.29003936127749685,0.43553623449475903,-0.40883637115338445
2.2844433579226555,-6.212148320778109,7.1868729075081585,-0.002513417700337649,0.0012259503621726078,0.010422279509450811,-0.5492975831214405,-0.08980359540664497,0.0682179900758124,-0.06269695276332221,7.565096271560923,6.231369298583998,-0.009860554119551057,-0.0009450305206067025,-0.010628761864418947,0.27516607951290634,0.3674176166367678,0.6172291169237353,-1.1789765676491715,-6.033861782743985,7.54982425615648,-0.005313811833739219,0.002028373590562256,0.001860549750133712,0.6936483824790834,0.1610177804678979,-0.3313481465337371,1.281355125503705,-6.073774590828381,7.683514039697131,-0.00011051690442226822,0.005777780837512741,0.004994843501803385,0.06308917661096108,0.4437390048805894,-0.7987850488837002,0.2814727946530722,-6.151177992329564,7.70234050518994,-0.006820322937959251,0.0015241330885065838,-0.005014378660458967,-0.286945306923787,0.44600377084726356,-0.4003118512627814
2.316288842647029,-6.188885837108616,7.197014343708039,0.0007971878740105217,0.0009250960219623334,0.010162167231633223,-0.5483307908825643,-0.08931417069371453,0.0660167953508456,-0.03752478618197006,7.576844788641146,6.214741193038976,-0.008689617778973596,-0.0015112659202077953,-0.010386393222565979,0.27927895909527817,0.35779957766796594,0.6102594764067848,-1.1662721048727134,-6.031921114340494,7.54981202058211,-0.003049994025627264,0.002454712276589539,0.0035624799063010307,0.7036262059337085,0.15337369672846793,-0.33839138903225446,1.2996140383900756,-6.071682088062597,7.696338465352228,-0.0017332640527810686,0.004667137507360433,0.005550800411717791,0.06699054833285843,0.43495237798687547,-0.8093807598328646,0.2793990005172421,-6.155281892273426,7.723147131709704,-0.0017362015856959951,0.0026595111252095648,-0.004379755316077973,-0.2821841065067582,0.4383880591872413,-0.4069379121967213
2.2924590025956144,-6.167333988128566,7.1886281897227455,-0.0024984243487012944,0.0011843896846109774,0.012099189140136772,-0.5468403857695401,-0.10079542704171258,0.07283409476268202,-0.06124457483476296,7.584557005556587,6.21624088684639,-0.007931100386762346,-0.004445183271330384,-0.010992657473940626,0.27166360900016007,0.3647998182070098,0.6058187417463583,-1.1736469971028463,-6.033360582052986,7.536973610154856,-0.0031566502992777146,0.0033397469349610615,0.004325593982158764,0.6945734313948367,0.15503421024829855,-0.34178085241143674,1.2928671638369653,-6.063997943341911,7.695497127919238,-0.001460689445529105,0.0015569988132517483,0.005626750308948544,0.06377832067329363,0.4396240366988758,-0.8132159431846379,0.26387811634445596,-6.106086091424307,7.6841868108010045,-0.00507353664178166,0.005220864024543499,-0.0024621886161962344,-0.2894696463543273,0.44407598949375077,-0.40932761698136955
2.2780389768105107,-6.1736368256686305,7.184258239459817,-0.004717770934009313,0.0017317294391094831,0.012169309946087266,-0.5529562111027049,-0.08638352311623058,0.06848266123602725,-0.07624745536814014,7.581733874897952,6.191832141385276,-0.008686610290305435,-0.001515260129224253,-0.010386357080571755,0.27143314009214403,0.359680247771474,0.6063859001351941,-1.2026572660668868,-6.011452393425663,7.579740401660691,-0.0030292113965443967,0.004112291084245745,0.003599662949982749,0.6914073382018532,0.15504891470433196,-0.34029891493896497,1.2725528629946345,-6.075305437055589,7.712253343369107,-0.0015211849781695322,0.004083427279995495,0.0049361697611792045,0.05944210529161124,0.43964412709275746,-0.8099644823529908,0.25353434783868756,-6.099467739070632,7.687630677845718,-0.009389186274667864,0.0007706918294392958,-0.004751505256613329,-0.292187782301137,0.4409289255068943,-0.4095529217467249
2.302253583270858,-6.197963251251162,7.178948816294528,-0.003640505940979471,0.002018774903276047,0.01030240313633649,-0.5485619494490768,-0.08931650914341266,0.06870293035281048,-0.08552069594610162,7.561448146054321,6.2207936009041935,-0.011018360181541793,-0.001915476548129974,-0.009026073925211249,0.27685313153335467,0.35586328221145197,0.6117724015684817,-1.1756337469969922,-6.046764306733949,7.5752608970466575,-0.005079417041613383,0.0027358421647715224,0.0020458961769419842,0.6980228882739422,0.15217220265273518,-0.33639387127520387,1.2977049430440193,-6.0815637351641865,7.715890853915247,-0.0030329254348116595,0.004912975837866292,0.004823742087157493,0.06528125709096445,0.4322760247345636,-0.8083817910049103,0.2760396374700832,-6.1328323041654045,7.666161147514487,-0.006174060343259741,0.0001696210258246907,-0.004769001948561731,-0.2853588310589355,0.43695459214150895,-0.4049618268628853
2.3128114957277166,-6.178945677015635,7.211118363054618,-0.002174178547130655,0.002316049667241038,0.011164677854021114,-0.5598265497589633,-0.09833700958490967,0.06288935291344867,-0.04950371217556602,7.578138406730341,6.238936460536552,-0.008979906023589146,-0.002078891713734686,-0.009782593012595008,0.26998855362920543,0.3589810956228003,0.6088488965266041,-1.1697176972225363,-6.040356643404812,7.554880236023849,-0.006446220804992706,0.0018182095517887073,0.0010100516615814744,0.6926460214956085,0.15435574978963332,-0.33712304858491243,1.3015201404698962,-6.077248246103645,7.736005398199668,-0.004272091284201823,0.002632385701628405,0.004787264310366532,0.05601968817021493,0.4330687281646629,-0.8077240399896201,0.2785809194140488,-6.122220288881,7.734105986779031,-0.004313062634052521,0.003258220396827385,-0.004327713548796631,-0.2912317755947215,0.43481599244742447,-0.40370098475221367
2.2868480917360743,-6.178220173382193,7.209956169161736,-0.004158700322377929,0.001339315353301997,0.012234273293214568,-0.5480896804445993,-0.08833664437003524,0.06528354093168517,-0.0686237521616794,7.5647763790332485,6.206607643658239,-0.011407424509541384,-0.003012151889584866,-0.010692943189467754,0.27267071816785,0.35995913133073304,0.6085694317852754,-1.1869941706581906,-6.027597768218092,7.553521106303454,-0.006573655261725902,0.0010466772214546612,0.0017369707234352902,0.6931243595909177,0.15629160950034926,-0.3386137591024184,1.2807705286810038,-6.058783607517367,7.703098970841348,-0.0041720299209580085,0.00010949320821565171,0.00484003921223638,0.058967848672928314,0.43646772211883894,-0.8080110064505795,0.2625346711570591,-6.135800427966419,7.698477951409457,-0.006328229484121906,0.00541338888299358,-0.003109428950429919,-0.28950541271444863,0.4406581804652627,-0.40957167068912453
2.276037626399169,-6.196845783866973,7.185566286048675,-0.001973200520444222,0.001826287084799352,0.011851270488433454,-0.5507313026331097,-0.08809934039267112,0.07432949964458543,-0.06313672208690879,7.570609999919873,6.2302233956536694,-0.011412528497746887,-0.0014894546444699024,-0.012537853769692093,0.2751819545822508,0.3620581289784527,0.6180409697567908,-1.1796225692381124,-6.032633214303113,7.548905036088611,-0.004054956891021667,0.003015104419214256,0.0019870744709724777,0.6946226851098873,0.15856808517301163,-0.3320563070704947,1.2865342925705285,-6.081300717704482,7.673592211350562,-0.0054408655070633995,0.002286464130287894,0.0047182202486694665,0.0617927517526803,0.44229302096650075,-0.8024286354556137,0.265323462785634,-6.10673030158217,7.671246349799268,-0.009451799199230095,0.0017503478937748577,-0.003801959777297924,-0.28842259487659233,0.4435773426841841,-0.39859270796627855
2.2950559151757646,-6.190678883812894,7.184561059341403,-0.0024876284970042975,-0.0007505585690750136,0.007710289767270761,-0.5492475402765626,-0.09005733770103806,0.07871563983953156,-0.06425391387266535,7.5811390957961695,6.205303667253431,-0.007484211644847372,-0.0023351805981108543,-0.009117307860840152,0.26950760764446535,0.34723344497689923,0.607074436253275,-1.168844838877377,-6.02553123692503,7.565023141920019,-0.0029235452970375556,0.0032282792796309375,0.002838542194309457,0.6887377162183047,0.14407301563291072,-0.3391769933557302,1.2946041658067282,-6.063189183361602,7.684719537026498,0.0002334603490093302,0.00460130108632614,0.005039206145655715,0.05831980439439886,0.4252549748309116,-0.8126721950189756,0.26381775921647477,-6.1330448994450775,7.688240984837281,-0.005453415549489043,0.0007244966332321884,-0.006479025966380004,-0.2933036374801406,0.4275123922966253,-0.41027931753225705
2.3016495161296784,-6.186046452551566,7.201209027898246,-0.0013654051064317056,-0.0005921914229656254,0.010870108196972842,-0.5444077413334613,-0.08443634614094052,0.06893159823742934,-0.05720504138489788,7.55817808491016,6.229500427299845,-0.009383339291142979,-0.004455616234024667,-0.010635161574813437,0.2668146552513787,0.35897544532919595,0.6088736586228651,-1.1674750709450077,-6.03677339738999,7.556304720624192,-0.0027086361409831418,0.0030951173078369717,0.00466012747749329,0.6843298733882045,0.15382584774378733,-0.3400023765407958,1.3113110764139957,-6.0744191798728755,7.687505896536244,-0.0005327001310253883,0.006944190865017144,0.006223066189638191,0.05478252560543271,0.4365012977648238,-0.809890064857518,0.29071638674012373,-6.137457601089144,7.712106410091075,-0.005698863622178281,0.004642070939072573,-0.002678879021611636,-0.2968419868414242,0.43633700303357065,-0.40512672370595043
2.287337705909217,-6.192028554264663,7.197050860356207,-0.0027242136880841843,0.0026728994173553047,0.012784658285865776,-0.5517541946920518,-0.09053111567524978,0.06505502392836339,-0.07024797369376956,7.581136134520778,6.195321900270984,-0.00730105553145741,-0.0035876565125209487,-0.011178359757797258,0.27219108342274295,0.35703586244501934,0.6091047957111276,-1.1842458207760815,-6.022631764929672,7.531487440828437,-0.004182392266796745,0.002244572017825894,0.0027139816475856607,0.691436789255001,0.1558486249993258,-0.33469310455334284,1.290342948842872,-6.072309417425671,7.72425471466115,-0.0015607867217689365,0.00407989720234556,0.005571975738231696,0.06067764629885772,0.43792267246451927,-0.8085265048210629,0.271598841975287,-6.111274646838352,7.7045069580802155,-0.005620343925046705,0.003080230671738495,-0.003813590719134923,-0.29095419035968023,0.4377423629099276,-0.4032136559581982
2.277943289580958,-6.186950032489391,7.186700370926744,-0.0040055497154255345,0.0019304224469086197,0.0109330741172703,-0.5544336912389397,-0.09321701234568784,0.06677436401425256,-0.06540021510712937,7.5744659477865035,6.223358565401053,-0.010506415629734563,-0.002869982574296097,-0.010663062019818982,0.27246130802061574,0.3487544274546106,0.6104472859965075,-1.176761310810246,-6.039690645262008,7.56661110466606,-0.003947995636587146,0.0029500407341437923,0.0028993518448751985,0.6948449641839126,0.14506677013639735,-0.33824549549025895,1.2755240585241097,-6.083607988666656,7.702088833500392,-0.004897600045114529,0.0024569092846693946,0.00538707829579258,0.059855802962606314,0.42670004299086617,-0.8092769541716203,0.2639815010827137,-6.1227109324483715,7.683334621549442,-0.006890950520695982,0.00385493982021242,-0.004276664810791277,-0.2898196903893195,0.4313837965042243,-0.4063962065204853
2.3037941729848743,-6.1875105012004505,7.1954693462409445,-0.0036166013817523863,0.000992459487051035,0.010626340226628785,-0.5485683679168171,-0.09761627749190095,0.06845125563277725,-0.05689785934810965,7.576126382719524,6.216313729534955,-0.010158181188962875,-0.0028086912299381114,-0.009210477376719923,0.27240246912597443,0.35868690294151045,0.6051719947546317,-1.1776700904620616,-6.040565523780292,7.565771311166032,-0.005976424032429533,0.003231159587519696,0.001381762825009512,0.6913921044473301,0.153058314597692,-0.34344943301511816,1.2968926533823477,-6.103858956412646,7.714514489142465,-0.0033462578448729976,0.00163089080444853,0.004863699992761802,0.058624783768122635,0.4362412061846597,-0.8133784026538289,0.2813037402824834,-6.113690469392849,7.703683980418209,-0.006216882354398825,0.0026871700701896037,-0.004612480114368161,-0.2919963601118684,0.43702085787567385,-0.4115076457516071
2.28547482772585,-6.193081915140499,7.204119874201094,-0.003399759692490403,-0.0004890538755768194,0.009950920477026276,-0.550726289592181,-0.09493714854010342,0.07627615308275286,-0.05829750306832602,7.574487088026565,6.218298317997606,-0.010753874240600121,-0.002406235260895278,-0.00984593310390546,0.2758801236402645,0.3683630740534029,0.6150121644529963,-1.1601109537632945,-6.026609029167784,7.562015843348965,-0.007256759365757256,0.0014098198561507285,0.00289341623011579,0.6958372339383209,0.1627140321019535,-0.3326001647777566,1.2936429532130933,-6.06129657833339,7.694247953818233,-0.0053110005712315635,0.0016967167714608663,0.005374258472554277,0.06392691223266611,0.44473218936947795,-0.8068555002093174,0.2810372623974934,-6.142273294102928,7.707176438310537,-0.008119719095298275,0.0021151099148147795,-0.0048982536542834096,-0.2867220151851956,0.44649063368733277,-0.4039754569149275
2.292082183242549,-6.192127390885678,7.199034105967787,-0.0030425440983099373,0.0005554856535948602,0.012367210441263207,-0.548076064489937,-0.08711813782251668,0.06797063851075315,-0.05954467891488959,7.573791943485866,6.241963714771699,-0.008715437337709823,-0.0025646658905237375,-0.01060352648331854,0.27398821731153156,0.3657830327707289,0.6223903597216917,-1.1723620314633822,-6.035450970653306,7.544258190774565,-0.005784594483655164,0.0006234696912176781,0.0014927485400425535,0.6943887172401204,0.15908006293859822,-0.33010797347394055,1.290830132848641,-6.075937121329635,7.6833334970579354,-0.0053197697660938865,0.003625319258580837,0.006615306637572917,0.06234915233868362,0.4420342431852869,-0.7985327442292259,0.2879578440259874,-6.1254818611168105,7.731919191778898,-0.006926760784681227,0.005020348125263779,-0.003907304407512008,-0.28889935701903297,0.44333804796675824,-0.39663635296328253
2.2982730518690286,-6.191200706690638,7.19406030469991,-0.0031022568845142317,0.0026241073112118337,0.011737408233580727,-0.5578356981180707,-0.09541503602908563,0.07020663193525864,-0.06480448656017876,7.574215111538396,6.208651594479922,-0.008948517338678155,-0.0008218543847054653,-0.01059968352403584,0.2663475966060149,0.35999512642871107,0.6117925076558031,-1.1827073979709983,-6.020676051713318,7.531500934833733,-0.00439569500305552,0.004015665043524529,0.004242197743897362,0.6887177397836063,0.15723865999555608,-0.34079856372373796,1.2839305767085054,-6.068780840581887,7.682096279644325,-0.0034453373486499,0.0041537795447705705,0.004809907280545403,0.056494557299553674,0.4389339382555912,-0.8106457610405204,0.25468877374103466,-6.114252772257747,7.675839045071082,-0.005594548171182848,0.003265992964901829,-0.004394768789541313,-0.2926360576029798,0.441666348521775,-0.4049106151486121
2.29360739226338,-6.186450166760326,7.170725745847968,-0.001776305293809466,0.00039232918526131157,0.00950797046238453,-0.5512570648589376,-0.0963939112967333,0.06773323777899995,-0.0570970909904283,7.563968438033458,6.228123111642552,-0.009899719706256726,-0.0032864620877222288,-0.01003048327268017,0.26630949271273213,0.35698177251816837,0.6062209188067283,-1.1644381290974415,-6.05829608886058,7.562534862282003,-0.002325297068387563,0.005411798241964017,0.002486340550291407,0.6887226395504856,0.15333483876597626,-0.340508148848488,1.3062180172828586,-6.0753333508093075,7.705029556718572,-0.0017312823773492348,0.004667127053338477,0.005549764625448191,0.057452677771786774,0.4355087637630485,-0.810429026510917,0.26031728119842207,-6.130116305477575,7.71325028508776,-0.006857137123610404,0.0026905514833709685,-0.004647011209727638,-0.29418735922255074,0.4372866973229073,-0.411004315556523
2.3024480479443468,-6.187711579756323,7.210528774908382,-0.002585046881200796,0.003305564704154409,0.009808544673326548,-0.5475881235136683,-0.09273512022871958,0.06869510124415311,-0.06789614512184411,7.571407389128732,6.212040946071061,-0.006969296200120299,-0.0032867263244819108,-0.010757363596297486,0.2721966835577785,0.35508671821019716,0.609377834884777,-1.1851423649302428,-6.0337958856449365,7.569980267306038,-0.0015567209925321014,0.004146959381579245,0.0038783744841030692,0.6955739897072434,0.14652549065123596,-0.3387547942688961,1.284523165536021,-6.064554834434379,7.712201081064077,0.001744198687748902,0.0037687563619354983,0.005152643149105683,0.061335963833075706,0.4315759753195773,-0.8102663230226363,0.2735567759072114,-6.122192345338801,7.6841078430216765,-0.004947282665462675,0.0019124709741632146,-0.004150399017082061,-0.28783714499772484,0.43331710955687736,-0.40494484253763735
2.2983523973001003,-6.171188893434988,7.1942214987554784,-0.0028744116011462035,0.0011020339275817168,0.01274091814468859,-0.5566346980157721,-0.09590017738143955,0.0662943925992114,-0.06950978912334979,7.569941493396444,6.213809583891097,-0.011664324322723862,-0.002326751244251731,-0.010907189406152509,0.2726661801452451,0.3643599081952187,0.6089919508917769,-1.1668350706896384,-6.018394337254559,7.542856615694081,-0.004502955103399516,0.0032657811800322605,0.0016564693238678909,0.6950759842622989,0.15775817560917488,-0.33864166950371194,1.2951822791289649,-6.067762712240308,7.7238081462570936,-0.0027614045130186413,0.0018028526882104385,0.004896710457040795,0.06087776958265996,0.43792823311602874,-0.8109714867740504,0.26144273632109094,-6.126503175512359,7.703705510411462,-0.005054610845212558,0.003286578856894939,-0.0024334883646466715,-0.2882937394990614,0.4386929821783067,-0.40811526459463776
2.2872273618117314,-6.186570109022286,7.191243384681173,-0.004716804857204162,0.0007579704397392435,0.010826385719691346,-0.5473893923066185,-0.08466831033815453,0.05795950987260647,-0.0670288870393045,7.5783743013880045,6.224299121546631,-0.011384399646635086,-0.0030461816215366475,-0.010697615772418978,0.2716368982838522,0.3517630481773384,0.599420306177323,-1.1789488544067512,-6.0394454144741525,7.56469476208863,-0.007363714485317181,0.0014799069659595186,0.001983079259846773,0.6908583047188841,0.1514885001016888,-0.35221765006866157,1.289771917526097,-6.095724845445719,7.712459990506973,-0.006107991298065727,0.0021104768528330546,0.0059518849750654,0.05803107865406406,0.43357393954512247,-0.8182584124807812,0.282790587165691,-6.102741449833292,7.686871144249662,-0.007516291462571972,0.0032761469087921507,-0.004495355167467785,-0.29202751523612386,0.43628919167924646,-0.41492557523233625
2.2964877402703787,-6.191583494455087,7.2091056645833795,-0.0034225860059920784,0.0005086948028179856,0.011319971803373591,-0.5482867934744873,-0.09542645550247401,0.07602003125952488,-0.07266494066080023,7.566463627270847,6.21800852923346,-0.0098508694066309,-0.0022660770609963963,-0.009817037622782616,0.26874356907504254,0.36260777220753054,0.6066072176000706,-1.1937253067731186,-6.037507890842106,7.555100184888995,-0.006125650144640858,0.0008060354201083562,0.0020704567628888506,0.6926270110433851,0.15504705774094713,-0.34054945777226253,1.283539849406635,-6.053575587295839,7.71138296758753,-0.004897629205298665,0.002457915153553973,0.0053850814539183455,0.05796748203359647,0.43818898321387273,-0.8099422891408233,0.2649138946239807,-6.119928895332164,7.672391088172682,-0.006183075938052931,0.0015227818203734785,-0.004983826488935075,-0.29121427774731107,0.43896608381165986,-0.4071188290280453
2.295795994165081,-6.184402076948508,7.193997457577847,-0.00434571538124265,0.0008117585886615134,0.011882673765569991,-0.5522387742390913,-0.08882226301071043,0.06554693269377394,-0.06021848490487369,7.5783651156037966,6.2193216101816295,-0.011338549061514273,-0.0020217874848223395,-0.010483206405763916,0.26833316896922343,0.35785641788611805,0.6154714599741,-1.1687002254342111,-6.021764687193832,7.53987844241745,-0.006103856800288252,0.0024636388629733384,0.0021096342608192304,0.6892574109160228,0.15099312847772026,-0.33218146652522873,1.2837969517504044,-6.067769650263777,7.681296527488259,-0.0034761811010731065,0.0022226499010447147,0.00420366808512852,0.05661666928072007,0.4342698732671397,-0.8021152902183701,0.2708098921258121,-6.122203379595511,7.707517587824572,-0.006308293795792459,0.0034800937002629714,-0.003080735662687787,-0.2960958924574159,0.43559647979554345,-0.40220192516518
2.3021540852489677,-6.183605363663934,7.188877734371347,-0.0032514643724077933,0.0010532430491847862,0.011691663333944691,-0.547079195426814,-0.09444850508679802,0.0730861297717897,-0.05283173266387868,7.567112339277989,6.217204562640474,-0.010124794653709647,-0.0015546649036884321,-0.010028538690031168,0.2717021274870271,0.3565434128335044,0.6088719020163933,-1.1760713460592034,-6.030172408360502,7.558443536182776,-0.004161897753539345,0.0030872270569292713,0.0010797134749774967,0.6950751983367033,0.15433171498920117,-0.33933298347152274,1.2921698433911273,-6.063118089597245,7.672461428850536,-0.003062780574956073,0.0029828424142532436,0.004216487908366825,0.06012950012707595,0.43500250413922903,-0.8107226338533223,0.27176602221193347,-6.117711530862565,7.698679088844612,-0.006200982562569163,0.002104985954216414,-0.004798646308206596,-0.28857008119573657,0.4352775622444779,-0.4078696267671701
2.2987192274061914,-6.19349723309768,7.202971145729341,-0.004231307201500805,0.0034239266083393805,0.01162454781689305,-0.5537154290829931,-0.08881907721604956,0.06311296754967398,-0.07743978346955588,7.56160314822937,6.223860902140156,-0.008995726470827397,-0.0031443172338353376,-0.01000262522516271,0.2685363776868586,0.3582684000128261,0.6103360158896658,-1.1825124997528065,-6.037480224148722,7.553363550995707,-0.0029450131194799596,0.002391694299032507,0.004478743920572634,0.6904436254764036,0.15311843997898292,-0.3383176226542187,1.3131194366843648,-6.082975387023366,7.685300837278438,-0.0004722428133186121,0.004414765426503371,0.006912638422065734,0.057782710845964744,0.4372038464546013,-0.8062782686477374,0.2712568571655184,-6.146194932916821,7.702220250712017,-0.006966455189520268,0.004065679247287272,-0.0029300865773187854,-0.2919474266847346,0.4379973207107956,-0.40589276553460024
2.2846090098296252,-6.202819481095552,7.17720965822943,-0.0010649677458154662,0.0015352141555108694,0.011308651121910684,-0.5541573492740296,-0.08980483218899704,0.07287928167927599,-0.06494583740419364,7.573828162042113,6.224797739903094,-0.008128212445811892,-0.0027394972250596485,-0.01100154272771047,0.27617258146188356,0.35988130970678006,0.6192868811676958,-1.1757151306470337,-6.042154773810587,7.548949287671136,-0.00424575088660933,0.005630889722320238,0.001883987617773639,0.6973327051318743,0.15666686452681447,-0.3278978871139602,1.2817792356810138,-6.077697519344229,7.7008327275636255,-0.0004803299287039753,0.005019091651822136,0.004346140143874861,0.0637436235945747,0.43616962120785757,-0.8002843620466586,0.2610593771931238,-6.112073598148188,7.701395385983983,-0.004370738352654906,0.005007872337014855,-0.003770145077950297,-0.2855319762797425,0.4384212498768233,-0.3969042941871864
2.2957934849653485,-6.187242327538536,7.187781760007199,-0.004321831846640025,-0.00021755311356378955,0.012202608128271052,-0.5463790493448949,-0.09126839655919582,0.06600564919370429,-0.06378531826278938,7.568959419741674,6.217852285797396,-0.0099356504883887,-0.0028091597137375533,-0.012091607340436397,0.26853591501897756,0.3585123725359017,0.6103323835457195,-1.1807980751120648,-6.020568096564701,7.540688189315146,-0.005100883175181308,0.0019032687899607804,0.003687050277161064,0.6872830355017834,0.15143298124047205,-0.33608243567029356,1.292063012835465,-6.0678233520099685,7.732192366829609,-0.0029000790075830677,0.004323211324086064,0.005478726548849654,0.05622523476778621,0.43062975786093566,-0.808956124586457,0.27242539460984583,-6.115397802796777,7.688117429908703,-0.00684213565619358,-1.1739537846061032e-05,-0.004227340871694121,-0.29610272109583846,0.43730569237944744,-0.40561981204346037
2.299005801353964,-6.177220354046182,7.181295623735273,-0.0023890273798468156,0.0028207978358978343,0.010503165748827176,-0.5449090744465744,-0.09444467367630667,0.06745968993372008,-0.07158363707913515,7.573472912169302,6.215284293051231,-0.010413085047982953,-0.002125301699994865,-0.009425709281930608,0.2738955390390413,0.3523749614120838,0.6074517634630304,-1.1729270005879102,-6.031229175330169,7.544007003318927,-0.004183380752065876,0.0022496064773703,0.0027169273417260043,0.695085595037862,0.14872871860401787,-0.3382903308849784,1.2894350554462395,-6.082090814145904,7.721518730234706,-0.004434873579315355,0.0012960343716528384,0.0035190379712337636,0.06180135458573111,0.428887496513567,-0.8105266481212655,0.27096727793323194,-6.128042156923088,7.702870867795713,-0.006904839205884263,0.0030870331857394072,-0.0038806250335515786,-0.2898274855209527,0.43162791187932853,-0.40786116656074595
2.2789599188194,-6.191153363284935,7.204737822970055,-0.002723241211788868,0.0016941385650672534,0.01144372941067581,-0.553484893486874,-0.08979373722476008,0.060424928821094646,-0.06602284533147025,7.578717850907978,6.21681612423209,-0.009309495099853782,-0.0034653025322466157,-0.010429463233829612,0.2736137725953296,0.35622288388266293,0.6034900565920455,-1.1891183092243531,-6.029644855297104,7.558570271862502,-0.005079392203696415,0.0027439129363667097,0.0020518005845275252,0.6933403250526181,0.15109261776412722,-0.34465661586441826,1.2794327873131428,-6.066611806636395,7.7098280298829645,-0.0045160834512558866,0.0012879876450119388,0.00479068305021208,0.060997212072930816,0.4318374366599438,-0.8156313578046758,0.2689404522281787,-6.1054531142747335,7.718801370574725,-0.006310293647739343,0.0034801136311073903,-0.003080721700167191,-0.2890867600872765,0.433085619496929,-0.4088432344471444
2.282099373738402,-6.181125369914435,7.1982800410154875,-0.003819480735934516,0.0014556535032247259,0.011636752157985266,-0.5490711986469086,-0.08784689832135488,0.06406767423408324,-0.07039107602851152,7.580510338803141,6.227467878299994,-0.01162083623441787,-0.002602442275885033,-0.009882274657867339,0.26827919000659617,0.36020255163389064,0.6090880182919698,-1.1762217959763774,-6.028112917933395,7.558315845137369,-0.007022659892582653,0.0013043526296935824,0.0014062877552344804,0.6921553359322581,0.1572851242634382,-0.3371552490529218,1.303957919649471,-6.064916715142533,7.683418268416547,-0.004483258023400847,0.0032191068347158366,0.005395886459359363,0.05653454326989768,0.43770505307443164,-0.8079636575127455,0.2730481876302286,-6.140806158575784,7.681664713933145,-0.007500381704955404,0.002694962743159122,-0.004681521343853354,-0.28923266390612823,0.43967931999178994,-0.40420252902019527
2.2939605395805596,-6.210299451710515,7.18915414302019,-0.0025372606855966575,0.0012469375875881132,0.010452413351278523,-0.5490717951013739,-0.09248534921480335,0.06455237821932482,-0.05875790288847667,7.579622401084445,6.233520526175238,-0.008373653865649242,-0.002280730887273642,-0.010183355122852854,0.26805149122788335,0.35361813127153946,0.6096759857723874,-1.181646251917981,-6.041667050936543,7.560740312557357,-0.004759831190363141,0.0017247027768528393,0.0031092945133522356,0.6899490061286491,0.14747729927103603,-0.3404450768168204,1.291586994448544,-6.071335100869196,7.701017400535401,-0.003273888993786824,0.0035675518095715187,0.004829103741108125,0.05622853013998408,0.4311177447842531,-0.8089547450237478,0.2807400302200332,-6.131881706490757,7.700907264766019,-0.00624768471886958,0.002501457691162644,-0.004032267113290834,-0.2944673272403435,0.4309421041559988,-0.407096818089418
2.2990632187410793,-6.176279863276844,7.1969424076015,-0.0018150991410912168,0.0014346345275004203,0.009205119655958502,-0.5497980266893072,-0.09102202177730387,0.06577722330803966,-0.06971303445077606,7.587025701063879,6.2175491208561295,-0.009263640722373288,-0.0024429081703116157,-0.010215024093863512,0.2707149122413315,0.3594604379172912,0.6081040018150492,-1.1773698930245493,-6.023474868471372,7.524810007566047,-0.005762489104602005,0.003105067603176361,0.003209269776607724,0.69215230662543,0.15629949019987963,-0.3378755748931172,1.287603141154704,-6.050336404437139,7.700581765266585,-0.00205643960159932,0.003310670585904916,0.006828816474074994,0.056949407312669606,0.43453649854383514,-0.8109109354115279,0.2790675503827253,-6.144422920759743,7.715750210223481,-0.006275497271206911,0.002314715465528896,-0.003452075073447269,-0.29146409793780165,0.4387245699600397,-0.4076051179667421
2.2992181828692155,-6.198406533049586,7.191059062644166,-0.003465229737434131,0.0025031884192438436,0.014060059160777584,-0.5478620584036236,-0.09761175297243414,0.06307681878783283,-0.07635327537956109,7.562440017641974,6.215780843987109,-0.009034664741627526,-0.0026630206508342046,-0.012063785434913165,0.26973627608704326,0.3543104461099638,0.6067231547337325,-1.1770705116751738,-6.0358670849913985,7.539651007583851,-0.0037125714261492014,0.003660581290418697,0.0030906567298839695,0.690693349326305,0.15117450279021669,-0.3375627847875733,1.2802230789158477,-6.077730134930159,7.699461347475618,6.496202342123954e-05,0.005185514668005484,0.005017950434531314,0.05767086214186477,0.43428903854668494,-0.8114127027672232,0.27253247207369913,-6.101139119264058,7.685678863868903,-0.004372626637254283,0.0028887753475333846,-0.0031643015473651797,-0.2929654842005377,0.4350773511579095,-0.40759495433280524
2.2888487193083003,-6.201802802139819,7.195197542525182,-0.002857614980556832,-0.0008704702794051104,0.010029975130356483,-0.5463858999994758,-0.09102303715005822,0.064540892275687,-0.06395324452375369,7.57460873149045,6.2168442686665815,-0.009235172443458181,-0.0026955837917776106,-0.009187335139260814,0.26689136040975114,0.3556924307116009,0.6179562653158437,-1.187463990424764,-6.033154866004681,7.5666238156254675,-0.0034771640806698628,0.00436607464194537,0.003278021381422169,0.687069501260469,0.1554139608952221,-0.3297810877893832,1.2999855339770838,-6.062489079923947,7.722419212473266,-0.003355098865727356,0.0035595050829306187,0.006100748820086441,0.054887680470137534,0.4325738094999981,-0.8025773198610009,0.2812939221160824,-6.1350383389881165,7.698373061726775,-0.006103544374759034,-3.506826292085759e-05,-0.006122545000429402,-0.2943631672563119,0.43728827899657635,-0.4012368501210288
2.2932141432392226,-6.179645217991508,7.195919240255429,-0.0014718571510384552,0.0025217303931787294,0.009948496084889192,-0.5500100023243485,-0.09761988858106728,0.07334120360745515,-0.07562702246080336,7.569037250806174,6.205779480116357,-0.009259637247525659,-0.0024489152748986805,-0.0102159658388526,0.27489787882710287,0.35708066802127414,0.6117694613748222,-1.2046919772834648,-6.025584925704577,7.573458819403762,-0.0039479689605864164,0.0029561116478476115,0.002905280022942005,0.6963198288952599,0.15144940973551374,-0.33539905563826594,1.2916173432241715,-6.055070005344126,7.731132788886079,-0.0017303252271922117,0.004666126274884773,0.005547744153705375,0.06241035172717213,0.43301899497439905,-0.8053975553213779,0.28261147713134066,-6.116770370803036,7.687402186639953,-0.0050586812426609735,0.005407735278514003,-0.0030362900458726083,-0.28661428548622875,0.4328168810736415,-0.40397739895804047
2.2943529537123304,-6.189931962559596,7.197019261572154,-0.004359634636011463,0.0008257534557938526,0.011897753488399972,-0.54833916974003,-0.09517226032996683,0.06503438728472385,-0.06339242781737492,7.581079200155475,6.207015104161052,-0.010770770171970758,-0.0019599402754722638,-0.011909743490905534,0.26781347290498325,0.3695540355030603,0.6140799977616717,-1.1754324817292274,-6.025282818758328,7.534266914419383,-0.004524732501835398,0.0016142248708611924,0.0016212201741674498,0.6894870845980526,0.16514942985592512,-0.3325950524162087,1.2939148519693089,-6.0773783720491465,7.721318147093312,-0.003728908851931113,0.0028038455684160726,0.005451126012344912,0.053920884338148865,0.4462656582796243,-0.8071593568790774,0.27159965521484164,-6.102017059108335,7.696708568005355,-0.006834233576011831,0.0007582268768658572,-0.004624338702096851,-0.29375768597302104,0.4492458430240562,-0.4014840422412589
2.2887484582534166,-6.197391036545594,7.166333773781956,-0.004386486282410178,0.001860061471639503,0.011583838026144428,-0.5517328860761969,-0.10298777254448173,0.07114743417268432,-0.05896426666573514,7.573260223994379,6.213565114436412,-0.011037609128828046,-0.002774266168002842,-0.010279304497303627,0.2680741749455396,0.3617469854163497,0.6144383542736013,-1.1844957079850729,-6.028764309362505,7.568854876747458,-0.006210804865931695,0.0025377494685747703,0.0012012495794245506,0.6904662696059811,0.15561542419731758,-0.3337080411052294,1.3036751402563274,-6.059655066514274,7.722471322913315,-0.005727510433168023,0.0009415678097879007,0.0053535080365609495,0.0551619019751406,0.439654864793889,-0.8035385292508083,0.2715054348331125,-6.13073960403133,7.700005806496308,-0.008782894080372666,0.0027007454630007827,-0.004749569613874026,-0.29456824780719637,0.4409524962023249,-0.40074708769214623
2.3004442270479513,-6.208210439167218,7.207409295838479,-0.002370113199259801,0.001794483705171501,0.01082912672631401,-0.5497828978247133,-0.09664064406004645,0.06967898300865226,-0.062415432970718936,7.588001563316171,6.219357102189778,-0.009269027962918614,-0.003734014593666516,-0.009405629146256953,0.26929629064930555,0.3561165972372656,0.6132915896249319,-1.1762195537505113,-6.0330677208716885,7.540272210558518,-0.00518603069334638,0.003632994870540779,0.002818866779096463,0.6926620719281767,0.14974320175148456,-0.334871099877818,1.2772219687190673,-6.081466448158914,7.668502096724939,-0.003857789626358403,0.0033965920416034745,0.004793078624608347,0.057714649868442075,0.4323267373822113,-0.808245749219268,0.27107300999762246,-6.110472329695372,7.702388646976212,-0.004997062273977749,0.004430089254331627,-0.003987828460283086,-0.29150253409161664,0.4338416849569318,-0.4061402388903323
2.2979139910690893,-6.183159205278278,7.1764722756921735,-0.004199510549449785,0.0014128607938779802,0.010591517196425752,-0.5561067199694611,-0.09517596128636674,0.07434863565677124,-0.06568267625866302,7.559942476984165,6.208963141803551,-0.009864709448033037,-0.0033335434984309714,-0.01004005524137972,0.2758847041409584,0.3548965621742845,0.6125264418561291,-1.1691548535990457,-6.038007032063807,7.53569064677338,-0.004631378964443725,0.002500283238188304,0.0023863221946214177,0.696807259986521,0.14777938378984296,-0.33609009289440694,1.2876726948773962,-6.071956688281277,7.699603621218657,-0.0027296260178106663,0.003734987395570688,0.005498935165813394,0.06451316653709131,0.42886517922587225,-0.8091101740201504,0.2817810760143652,-6.154684124208287,7.695779888157124,-0.006771699336389178,0.0019016876212421534,-0.006180713655295862,-0.28514380227960473,0.4335342666132819,-0.4042316077827332
2.314408605898514,-6.19786258212698,7.182883835944876,-0.002361089822748816,0.001754921228048152,0.012512066828955875,-0.5512764974125332,-0.10127273622794859,0.0643107624078084,-0.060192819097262255,7.565207480790438,6.210508227324597,-0.009888174284117583,-0.0030868732013713215,-0.01106869374251412,0.2697921960379709,0.362991720284585,0.6158716527888313,-1.168571519185412,-6.050200499808148,7.5507397779552665,-0.002239406558861375,0.0028742319806845194,0.001689983664222527,0.6916979546100545,0.15539470698312038,-0.3317588589787728,1.2899947560785536,-6.080945053092105,7.7096650948088215,-0.0026880178894695393,0.003739504044561654,0.004863096063887568,0.05716208175308671,0.4374347543271779,-0.80016243100409,0.2818298639133946,-6.120660925153271,7.6960275144960635,-0.005681961604822337,0.002706805925978928,-0.0026521647762554504,-0.2926528440453952,0.43775926641140384,-0.4017377606612192
2.2925860393186954,-6.193868769429083,7.1904489788386705,-0.0005268413345469134,0.0011863552355876057,0.00970673526285778,-0.5514820066469075,-0.09395515796428064,0.07139862007495162,-0.060835694221727556,7.57656434496365,6.2076065869737675,-0.010115148622161422,-0.0028717714984075825,-0.009220873430023846,0.2675925811601778,0.3563684498439807,0.6140341865823367,-1.188686016553522,-6.025962867289394,7.55809313314281,-0.004183367414065511,0.002252641934222209,0.0027198914307594076,0.6880288681161418,0.14779508862662322,-0.33409001301396196,1.2885866578683534,-6.094848038242105,7.689545064134161,-0.0019336395578156698,0.003323236909377312,0.004920332458747352,0.056824425237173036,0.4328075960831364,-0.8035885752891223,0.2706376091747617,-6.119426527405502,7.707669035834181,-0.004915533843784187,0.0028712192028273837,-0.005125560976120325,-0.2946470909199432,0.4350940421435356,-0.4036771185460157
2.2967759368021508,-6.171918998169268,7.191088322032824,-0.005486692641236107,0.0016285733504726142,0.011782886306110907,-0.5454020280694798,-0.09859391157604853,0.06697019062114634,-0.05317129951100822,7.5655383755489485,6.205237965816983,-0.009248634375685074,-0.002462938819281978,-0.010218842818899324,0.2658310911426454,0.35895914962315145,0.607904410928013,-1.1849423853197898,-6.054952509123242,7.572562966505052,-0.005101871660450441,0.0019083032495051857,0.0036899959713014075,0.6862893951722275,0.1538420356432324,-0.33879197894915464,1.2940470960684813,-6.090188013966764,7.700237521214543,-0.002136978597749018,0.0019793505185068594,0.004291918102393062,0.053110013131807236,0.4360182833795168,-0.8076630875048821,0.27187925404094715,-6.136478534385556,7.695419585765771,-0.007640538002791177,0.0038793782022970096,-0.002382383846370404,-0.29757661935917923,0.4382974768683258,-0.40829450201370765
2.2997265432941942,-6.200235427607554,7.207893134295853,-0.003245495897187729,3.692779993612528e-05,0.012027695611335093,-0.5522398555949238,-0.09053126193744718,0.06554535184519956,-0.060389910547816,7.5707924536914515,6.224461508897584,-0.010468777888197799,-0.004220169716561851,-0.009864122672138417,0.26980001896002614,0.357862661688045,0.6157039962495918,-1.1961619374941055,-6.034344246590192,7.5519583744591845,-0.005397626021059276,0.004588154019133693,0.002674632878264069,0.6921693672298129,0.15486942011895763,-0.33492941221949757,1.2917395287678426,-6.069021402711784,7.690169685839768,-0.0026413647594457092,0.0031387204935051254,0.006791806672102001,0.059989104467367466,0.43474287430713077,-0.8048609076221664,0.26236777341976064,-6.124229059571572,7.691000941270639,-0.006809488510102253,0.0030671155960619485,-0.005808339362604336,-0.28924263862162264,0.4374812804178326,-0.4024936090289821
2.2949844186588746,-6.195578760984093,7.184473852946909,-0.0025630366172373887,0.002248678868115583,0.01183148260560741,-0.5512475397599841,-0.08687259659378317,0.06847403707697167,-0.05821375512628806,7.578708074028023,6.212948014412043,-0.010122211779337233,-0.0013500031961836204,-0.01106075422674876,0.2711842398979977,0.35624036838553325,0.6049738932288605,-1.1755753336939243,-6.036671239551145,7.548109266934831,-0.004289326994439823,0.0023217180802792355,0.0018085610552243836,0.6933356824120653,0.1532836474453737,-0.34517168613320254,1.287271462692035,-6.069943029123256,7.709191349392147,-0.0028575069762730356,0.004327727167826847,0.004840869802153778,0.060074204726369304,0.4372119595056731,-0.8146217734253757,0.27172093378407625,-6.117434035614935,7.696838382887319,-0.005564704580630325,0.0021046443407696956,-0.004765087211077879,-0.29107273597207844,0.43457060411997894,-0.4156654078877929
2.3088299347755057,-6.185894709949851,7.218197036352843,-0.002548187287828909,0.0012569315003274867,0.010466475039364096,-0.5566558838555541,-0.09247764796273827,0.061414612221129095,-0.053579853632927936,7.57108184003766,6.219251518364137,-0.009257025123095093,-0.0037480363578690935,-0.009408513927846291,0.2651318637183949,0.36024783286264545,0.6125302976016598,-1.162743781837518,-6.034864524356147,7.5480919417934915,-0.004737328733775912,0.0025703830932009186,0.0014769797636826286,0.6845948309926292,0.153872510661661,-0.3360970205979971,1.3015457905068235,-6.082059747597813,7.7307698871981305,-0.0037289380121152487,0.0028048514373006507,0.005449129170470678,0.0533874157103226,0.4377220061916619,-0.806442844336981,0.2703953317471087,-6.116246987661951,7.709539049381519,-0.005610426742531109,0.0024991062116133953,-0.00399871503232815,-0.2992657746127781,0.43807024376051795,-0.4051096526226131
2.283539849736678,-6.188420392784312,7.195152346141244,-0.0065620514792569945,0.0003637793974836005,0.012294860549577109,-0.551508599265852,-0.09907762317926308,0.06651093545399739,-0.05748931918198076,7.585091627699025,6.20330589944218,-0.011620266758713988,-0.0023947993675447173,-0.01091551911021799,0.2651156648896273,0.3587466245641049,0.610111451339009,-1.1771728053731851,-6.038443652239649,7.546441769559843,-0.006210480263063374,0.003359767859787006,0.0028806169183774742,0.6860585321805455,0.15240305341016036,-0.3365764423523062,1.2885879338202295,-6.0581353117011565,7.699183860443941,-0.00469440680610186,0.0038058250199627395,0.006005508442775694,0.05309849870486602,0.43626443760828365,-0.8083952763559529,0.28069185567574745,-6.139093676285653,7.706164101542141,-0.008208204236710027,0.0015529335124455728,-0.0031616425658791704,-0.29560404569803184,0.43803375038438686,-0.4051352179978242
2.2973012351780047,-6.197651443126163,7.178219777159502,-0.003662253816378573,0.0020151919759512473,0.012028524277087454,-0.5532042249097776,-0.09273136582168642,0.06847795610133847,-0.05706161210237479,7.555429460560759,6.249949157779433,-0.010702813487237606,-0.002484299598763804,-0.009856168269717538,0.27171369774080417,0.3604853462501908,0.6112544099529253,-1.1693548736673343,-6.049433950723084,7.5494957605696,-0.006233288768685841,0.0017011279627626098,0.0028384569365206315,0.6926451982439052,0.15239708623629536,-0.3375877951901524,1.2975901009828048,-6.088955834334142,7.680049190809826,-0.004940347037529376,0.0024584286542360836,0.0060129539912430465,0.061901777033012244,0.4359586696217321,-0.8075771182932345,0.27412168277853655,-6.145002980811531,7.67682873706305,-0.006929745312214591,0.003669307077537809,-0.0036953959840010145,-0.28927013356673253,0.43626153219748187,-0.40469057678180526
2.2908001078750146,-6.198373013491717,7.190850343140402,-0.0034742943380750165,0.0015649934558492065,0.011033195925731086,-0.5510278181164823,-0.08833321741648409,0.06358857300365485,-0.06154725813888153,7.5688744758215964,6.21206333482056,-0.008909451461532237,-0.0008818676068687602,-0.01060509373737718,0.26732836314492303,0.3499588912964835,0.6099811768282626,-1.198758528405922,-6.043879869578476,7.531549947502116,-0.003841996961253621,0.002891070887588179,0.0038195626022697994,0.6889880337086484,0.1443317127702244,-0.33796130879747766,1.2871136649708896,-6.073345098890729,7.66852742113655,-0.0025591730280382654,0.0031467634670553114,0.005519143782777135,0.056708151062497825,0.4279384019625683,-0.8082406112877503,0.27287159333986044,-6.130372976682315,7.687171988852231,-0.0061712206420034355,0.003065754101430651,-0.0057747942454490836,-0.2959407268381011,0.4292476821102766,-0.4058656501251262
2.293562927660408,-6.184892935009338,7.206181824215052,-0.0009107200470739004,0.002089749876166726,0.011705432903182985,-0.5551463348924074,-0.0866275021254317,0.06995792461212282,-0.05979805501802609,7.5647422761042105,6.226905406439362,-0.009034471050446063,-0.005253302420505432,-0.01045096141593508,0.275825959826672,0.3567438433643882,0.605418368255622,-1.1807062040649638,-6.035232601685107,7.5360986669778764,-0.004053909837918359,0.003028235140761499,0.001997913651358818,0.69724853891742,0.1525666572539667,-0.3442070716848708,1.2840698837763205,-6.074167032338885,7.677889203950008,-0.0030676043754527386,0.0049114269411698296,0.005454464666422763,0.06524625826397842,0.43619199578644025,-0.811788182908813,0.2818011854220159,-6.137160445584087,7.6952752604849595,-0.00565713886461843,0.0028945779982194643,-0.0032323358548652556,-0.2883343845996823,0.43649632503100455,-0.41080123748225256
2.298823687665222,-6.192112404850275,7.2160590866590475,-0.0006830595696989566,-0.0003865027709464513,0.00965902201220669,-0.5453543723868266,-0.08785984832923666,0.07552502575394425,-0.06365525454235327,7.5791032671717975,6.210561091605566,-0.007457663668379693,-0.002153622585951002,-0.010159366829020952,0.266806695552655,0.3611649262499212,0.6083530215698463,-1.178743864072552,-6.018140819681544,7.548362961034072,-0.0007441137841012111,0.004562516750304091,0.002008914776565986,0.689713372108697,0.15728303586779122,-0.3371421218665225,1.2812371783989787,-6.074621100286729,7.687505323101929,0.0009985737433959618,0.0022514181961417446,0.0038553442887869346,0.0570250568777818,0.43599066429497163,-0.8072454002375704,0.2717978343087357,-6.116560759103054,7.69686592273308,-0.004320917592084621,0.00114318308826514,-0.0037228280364688094,-0.2946305680214942,0.43948816385913003,-0.40758294667105754
2.29215236710491,-6.165998986817465,7.1985670127504084,-0.0011096818539997886,0.0025825084160150166,0.011021833443856571,-0.5534899544607293,-0.08857160579627087,0.059206072735232755,-0.06242124523907195,7.574412402969248,6.20346239397342,-0.009261092547569348,-0.0022322918413849343,-0.011250328526769417,0.2744143360436679,0.3507179558938959,0.6108909070164004,-1.1903110562154589,-6.03766611472515,7.546741037364734,-0.00347713556658537,0.004370145697757823,0.0032839733299702407,0.6968316945588929,0.14832249495830577,-0.33145828750013956,1.2947374729618437,-6.0775678864546405,7.679914961648316,-0.0009323638445772625,0.004253365361465921,0.004968102833396968,0.06556628417006538,0.43055679832977417,-0.8054614935657349,0.27018541436660903,-6.128842562709587,7.711919476635757,-0.004991051463442597,0.0030799586421965874,-0.0037779828019230137,-0.2846774866409534,0.4308444731213733,-0.40350307933714213
2.2910389681535186,-6.196499382511349,7.207303134961754,-0.0025541505831289868,0.0012619287708528256,0.010473508274498843,-0.5507502509180798,-0.09590861728997015,0.07139330818219607,-0.06269079014650564,7.586522799118847,6.222307694651377,-0.009538331668701728,-0.004326719395915797,-0.008809619472306835,0.2772853287067971,0.3601677004839725,0.6056000297440969,-1.1786160092217584,-6.029809358060264,7.539038220703025,-0.0035009449764354526,0.002712504874480238,0.0032418068384609715,0.697251724102336,0.15624291474910906,-0.34302969932066024,1.3058370073630206,-6.076219708944821,7.741077754214379,-0.0011850691880630135,0.004832555186749181,0.00621755477551483,0.06444429898149664,0.43816352061895963,-0.8164067355115231,0.2778482653531778,-6.106099101196883,7.72919938462677,-0.006236835318887967,0.00404243986291105,-0.004821227972189174,-0.2853839282100688,0.4393960870611603,-0.41204161172475234
2.2829811670451927,-6.1793042728745755,7.204059583223613,-0.0029182195426894738,0.0011715803275747186,0.011099172682533827,-0.5546664106483103,-0.09199789868406791,0.06897363424697836,-0.07129967960275198,7.577448948329973,6.202726064887965,-0.010756143830637627,-0.00327908244698318,-0.011105087041555455,0.26218527233742683,0.357513261336692,0.6096635477341182,-1.1906256148929422,-6.022295131955327,7.582009964659567,-0.004973414988530903,0.0026848955297912873,0.002968011682248391,0.6833687850873362,0.15190018730191426,-0.33753211397569477,1.278732748835674,-6.070873676674539,7.727331935044614,-0.0031954965376012356,0.005505169634470038,0.004795402295312412,0.04916961884715411,0.4340951088637657,-0.8088191924583523,0.26288964788479163,-6.1277273734329905,7.687519908928109,-0.007553110329409969,0.003089494458983616,-0.003916100271912091,-0.3005336523190718,0.4349087603560117,-0.4072981303595149
2.278312751281142,-6.174675599830917,7.180582922768837,-0.0036443587505583536,0.000988882185651908,0.01235049008420836,-0.5522558903247509,-0.09004009024105783,0.06212784379808316,-0.07065591197430335,7.559413738852473,6.200885542314546,-0.011264010009364542,-0.00234950688094746,-0.009463758551723303,0.2743492975694415,0.35990397046287875,0.6046506506646703,-1.1795552656092831,-6.037327067517469,7.545238172957321,-0.006233610912847088,0.0008881327120714363,0.0011609824602388807,0.6948050417773911,0.1528056503598583,-0.3444408237372837,1.282353838130171,-6.093338052520484,7.7076364304516005,-0.004983002098517569,0.002454927522901468,0.006645814392794188,0.06252394965813994,0.4364604576541302,-0.8139358640024985,0.27344636596750094,-6.123476229757357,7.679580391702778,-0.00818545204200765,0.0038618420754607556,-0.004344629288235506,-0.287103020026569,0.4377041178996624,-0.41105373436243337
2.3072012881637263,-6.184646453177658,7.190926658811551,-0.002557134305207959,0.001264927869815953,0.010476525360504384,-0.556361689459895,-0.09248754371832334,0.07191132083533688,-0.05995912605665849,7.588358757333748,6.228055912612918,-0.010155476347198775,-0.003684588781179452,-0.010473625097123383,0.2749887510379472,0.3523546483018427,0.6223386700894252,-1.1744917815639788,-6.031702521460111,7.548813435461192,-0.005420741494758865,0.002117554470378665,0.0009579862796401434,0.6927210869318365,0.14693823121261942,-0.32433916930904566,1.2788627066413683,-6.0726977545107825,7.706868836158666,-0.004180239322778208,0.0001155879246541266,0.004826202299528371,0.06259332143080965,0.4295672600946929,-0.7939341179046268,0.28096161545298665,-6.128296738840802,7.701028032863226,-0.006169164057981274,0.0009446177847066606,-0.005173978552963658,-0.28779451765118913,0.4298983232339595,-0.39395916991428115
2.286190935182471,-6.168999507489312,7.20536781403643,-0.0027390601761629373,0.0016765639410427076,0.013156809062343101,-0.5539465508606742,-0.09614731774985655,0.06676931523589716,-0.05964860989722528,7.56987960167735,6.204164481367777,-0.009545391033517855,-0.002806950868471142,-0.010649470495720716,0.27322328209606006,0.36106321895712484,0.6170948882902662,-1.1739360319209569,-6.0319160597964085,7.523989880785981,-0.006209792610996762,0.0025477971732502944,0.001205125011103752,0.6926795929636979,0.15638698993320035,-0.33055482131755237,1.3050552408014742,-6.057607710533542,7.690769327314088,-0.004187022391334453,0.002042177063504572,0.00606720885875538,0.062496980175005996,0.43544941527228465,-0.801485298595695,0.27133428992467234,-6.143178535720096,7.701126946033806,-0.0068780999798598915,0.004044831291174465,-0.00485575210374122,-0.2892212101053856,0.43723699508226344,-0.3990756965822513
2.2959880768684817,-6.18068438042619,7.180142824894049,-0.004948570098490292,0.0012887162809551355,0.010178978795907226,-0.5512398318058384,-0.08760718213488261,0.07018233876878446,-0.07048773297165697,7.5775641390060935,6.21056114292053,-0.013087890547431069,-0.002188499710507163,-0.011583277948645391,0.26460416386293767,0.3631111593150918,0.6080971074986672,-1.176130691423197,-6.033594173607865,7.547045569622036,-0.0035016157635434576,0.00352952276576518,0.004921238979205265,0.6835985205638393,0.15456007088766172,-0.33976316236627424,1.2846040866572306,-6.082436362990596,7.687263787079658,-0.0019326756548467656,0.0033232361041271273,0.004918314813977301,0.05134930966275042,0.4387271805086132,-0.8115311264961572,0.2732428558828238,-6.119478047222907,7.682110221947411,-0.007573012810180623,0.003670718399280155,-0.0037289061948547783,-0.29876978743020266,0.43904135340065625,-0.4053570364974951
2.294999809685381,-6.211512533683588,7.188531040479812,-0.002559118671660884,0.0012669263410957827,0.010479536739312205,-0.5514709002362512,-0.08931874687840345,0.07311189001585337,-0.06664100886737309,7.556906787613595,6.221690624494818,-0.007422194096291783,-0.002415314534602884,-0.009133598222820371,0.2783411326873388,0.3617907051506292,0.6160671158623382,-1.1718621916914567,-6.027489143841439,7.550888407062159,-0.0036890395512498655,0.004509333588832416,0.0014643004384148612,0.6963360728215978,0.15662248779938046,-0.33155432359558745,1.2924898977387858,-6.06437811063354,7.698576291461752,-0.002779085359903311,0.006264339123840788,0.004809165198232301,0.06346792771209651,0.43862110869773757,-0.8029586277154631,0.2714404190625492,-6.132277975793146,7.696757047306706,-0.006921768542785732,0.0023171568079286852,-0.003487564274328378,-0.28429188351454815,0.44231513175339876,-0.3995976777218857
2.2957025920796,-6.177077326383218,7.209470885323719,-0.0018199230894101028,0.0013705008142705737,0.012596123430115937,-0.551728752463453,-0.08907087459956427,0.07018331825434398,-0.06588889425258247,7.594215289080243,6.209322097463705,-0.012169437307971754,-0.0022779981615455303,-0.010523934909687555,0.27436915530933464,0.35847187287256,0.6068691492925649,-1.1770249280669112,-6.0464771992133555,7.56132476137344,-0.004078397238002213,0.0021896001766552728,0.003634155615194143,0.6958021225801057,0.15236206176179842,-0.34077858725822757,1.2795945870299597,-6.070311115232261,7.716590339234376,0.000155195902468515,0.004585234471263357,0.006310774681082762,0.06233916051401022,0.4354753238426992,-0.8102728433438361,0.27891833715412545,-6.136996109383785,7.71829796025014,-0.006181123584777314,0.0022978077793194556,-0.00538078234451168,-0.28834655282549226,0.4352753856656688,-0.41080125879220336
2.2979874305350125,-6.17861354390894,7.196250377657736,-0.0010937736855999203,0.001554197099507533,0.011346806929730122,-0.5444001340267685,-0.09640228419189724,0.07209449464571573,-0.05908440458360703,7.570155579281094,6.211814063299249,-0.00900307459137193,-0.003996250190504193,-0.011267052068624177,0.26780324258055266,0.35385439775617444,0.6091863259339926,-1.1952365204158535,-6.0272432058392,7.552605033166729,-0.0030522528279071093,0.0016488693881847893,0.0018979318784509024,0.6892254100905086,0.14725300976597894,-0.33872938191634744,1.2818461267295613,-6.065808428736638,7.746739174606629,-0.002934005237579199,0.002393116495560106,0.0048675449360571854,0.057427872008242786,0.4279356479992349,-0.8089856664373479,0.2703558945785531,-6.118662658699608,7.706336036401908,-0.00439057175841161,0.004242024960628781,-0.0033690635000903097,-0.2942097203739704,0.4326486301926737,-0.4075864797976905
2.292076921995024,-6.1825514957699506,7.1872658782315515,-0.0056568352651634145,7.67120627326951e-05,0.011748259277111433,-0.5512977692395568,-0.09614198144282551,0.05918856484774574,-0.06459875544376091,7.558247570672189,6.205485479764099,-0.012774521264445735,-0.0031646559618011666,-0.010349994256407107,0.27878101979852765,0.3580244873760158,0.6090388236797667,-1.179214747318151,-6.042267874390943,7.551988666623154,-0.008366356901267177,0.0028843533170141273,0.0020897686817561126,0.7016876453687911,0.15340396307837162,-0.33569511903757454,1.2974548064515046,-6.047681560049967,7.709319136619556,-0.006527639656005749,0.0013613773115802297,0.0059212070844428125,0.06991450437899753,0.4334680642152917,-0.809193608376195,0.2728384539583922,-6.11631689287099,7.683990365890534,-0.00813075718039703,0.002116220093976538,-0.004905176672381137,-0.2817163271843239,0.43618628384266545,-0.40669636336621046
2.3073051419345263,-6.206179274040825,7.207944381017211,-0.0034862088345083008,0.0015789861383300136,0.011049266072330683,-0.5539165271452456,-0.09297875706460544,0.07263118172707493,-0.061072190639591524,7.580219066411059,6.233116569874313,-0.009816281866523115,-0.0021055024425735243,-0.010858846383538467,0.27440798978146175,0.35707614855493836,0.6115283031334435,-1.1864115415955983,-6.051226221698961,7.570154338084374,-0.006917023673830042,0.00043530408924918185,0.0006419889761963953,0.6958379383484694,0.1519514754200046,-0.33418133623324237,1.2986321895584345,-6.0840549676274565,7.688619344537961,-0.006069609146280569,0.002124060528897898,0.005300127892887609,0.06655304132225988,0.43397031774884626,-0.8062012722476459,0.28022541916070576,-6.121294129501372,7.705335886442279,-0.007582942665267994,0.0029007722635139657,-0.0033358943044536644,-0.28515841061317,0.43377846692510597,-0.40667254403841374
2.2841934421357593,-6.187948613773916,7.177647451096108,-0.003486203420166721,0.0015799852096730846,0.011050266985481942,-0.5488075601682297,-0.09371057951505041,0.06894402980061663,-0.056027786789938694,7.584974117675957,6.2128266330515975,-0.009507923611087703,-0.0030716538199025657,-0.009624672691390548,0.2649200899795031,0.3593287117155619,0.6164521937247741,-1.173625511437522,-6.03713364237292,7.530510806723811,-0.00452639453133818,0.002439277008527593,0.0033035623533301892,0.6858251696003463,0.1551166893528911,-0.3341652503490674,1.2831139045964015,-6.060461390347805,7.676184489774587,-0.00431491455348295,0.0026359197568047803,0.00540814648764503,0.0504962070199978,0.4367574607728612,-0.803951359148572,0.26134826486113144,-6.144278025901171,7.698501496211004,-0.006895952857348066,0.0025049190017723396,-0.004068742309829034,-0.2982572350353995,0.439280201939227,-0.4021865164426454
2.2957955926934703,-6.1756819485578935,7.166838229851529,-0.00072765131302172,0.001606981894411877,0.012410117878476826,-0.5490800202025685,-0.09810043900366124,0.06357019493155508,-0.0524378157583499,7.563760425228688,6.202071309497887,-0.010701253713893773,-0.002275669923825132,-0.010890435269018056,0.2629510885605576,0.3607646042872802,0.614736862580454,-1.1700413217696626,-6.032150891845331,7.558116681218284,-0.004972727336464293,0.001872924843254575,0.0012925197749746689,0.6873046267683968,0.15221527267821075,-0.33194150064017697,1.2907905967771582,-6.077832682780345,7.686792191853032,-0.002517594059881274,0.0031522859849308564,0.004881307838977073,0.05168312956828461,0.43773273586222655,-0.806167164050731,0.28126701876809107,-6.118058177354206,7.695491657017935,-0.005001964297976823,0.0023110223351674405,-0.0033839639371781812,-0.2975347442564063,0.43805293663557193,-0.4019476609450868
2.310609957365219,-6.195463914429442,7.209626542831003,-0.001620108832460197,-7.044411734257768e-05,0.010236802772219276,-0.5585616155136366,-0.0934627098267103,0.07143292934385634,-0.05917777711248623,7.581758765433239,6.216721583619076,-0.010102585976977002,-0.0026771653678522088,-0.01025801740937109,0.27055218105081813,0.35324731710373297,0.6172321377866353,-1.1723952099933286,-6.021111536823305,7.5418556684291564,-0.00247713676070009,0.003805820903385719,0.004865452673712959,0.6934171919512986,0.15028404965431874,-0.3304862087392969,1.2840460433830083,-6.070119572873504,7.685957899291372,-0.0010998420957647895,0.0048405721618245785,0.004946837627267812,0.059767572467965255,0.43156439573301403,-0.8024238958193388,0.2707814476316303,-6.124875121760395,7.701384404416657,-0.00625567815656268,0.0025035374892712955,-0.004034211179563822,-0.29049663634587264,0.4338315875843233,-0.4019971607148481
2.291785646504899,-6.174262987159132,7.188001971702005,-0.0025660717593875624,0.001272922383246575,0.010488575657919596,-0.5483345355386741,-0.08784826492948707,0.06504116208575299,-0.0654515275239361,7.557086478439526,6.214866735842393,-0.009212610686775783,-0.0025130032110069456,-0.010227378070423203,0.27312000484806226,0.3642953020523606,0.6045947643838587,-1.1851371362334155,-6.041676320862085,7.563932423107563,-0.003948933377771176,0.0029642053442538304,0.0029131896359526196,0.6945796832126884,0.15822830474036376,-0.34010972156960173,1.2964473752292855,-6.08210186052544,7.717519118723847,-0.00206532884624941,0.0058415486923271975,0.00550221706514933,0.06260406877888856,0.4418241151036592,-0.8114790846695907,0.26980664692717093,-6.131539862293255,7.7085018026924494,-0.0037522899288334236,0.004240663291946828,-0.0033335184316739498,-0.28851388516058085,0.442113371496099,-0.4095784658119852
2.2879800145558167,-6.198970235733008,7.173560068351795,-0.002196968548104544,0.0013257090053326941,0.01154787230756468,-0.5488235737964702,-0.09688185932504398,0.066012128552205,-0.06540653856048298,7.581604135028888,6.2071289562281065,-0.008648838825410374,-0.003943976953512814,-0.009816379972384619,0.2673491421926091,0.35808409470314917,0.6144985799353015,-1.1786554924877515,-6.040553084010506,7.551749256962034,-0.003264842775763738,0.0026040395715837845,0.0017547032681251478,0.6899879324297139,0.153678564557656,-0.3322173187024828,1.2894740993434597,-6.074455170870825,7.716671735253294,-0.0023559090701471513,0.005096922422201622,0.0035809217075016796,0.05930711802079476,0.43498385495079694,-0.8021615042036184,0.2644986338342761,-6.103934873629445,7.667289254556272,-0.006870120225383812,0.0026936810589308284,-0.004648920352246269,-0.2934003796959562,0.4363026437678887,-0.40173266894841836
2.301337999306707,-6.2045143941804115,7.178644110985867,-0.0029529869975335717,0.0022178785139119702,0.010801306388114601,-0.5493292578158269,-0.09004147768675531,0.061625842570291536,-0.04408360886590303,7.571931634670219,6.230717649813201,-0.011557751593809805,-0.0027015126887116984,-0.0098942905399284,0.26834284635516265,0.35174946942249624,0.6153183625839569,-1.165719262990834,-6.038935359541871,7.551641609636675,-0.00747066391763036,0.0015730518915438067,0.001077468503635372,0.6892583461460483,0.14854840083115103,-0.3323964220077014,1.2909463631987925,-6.061751380308658,7.716886782905844,-0.004188069323981518,0.0020431925811609233,0.006064230158380696,0.055576669675724964,0.4306209879103888,-0.8043047343201681,0.28036673281400565,-6.1418184991339775,7.702018032974206,-0.008124834009943111,0.002886206178456892,-0.005299160613371612,-0.2946638688715828,0.43289708745663813,-0.40294417475276945
2.288305361089594,-6.183340382914848,7.2102634530256315,-0.0009265975096647268,0.002101737648917387,0.01172952023359039,-0.5571212331709375,-0.09174964693269311,0.06605656800667094,-0.055464854139354355,7.578548327367643,6.193404263866957,-0.01009657687762399,-0.0026861685742467973,-0.010258930097478854,0.27534211295017263,0.35503780114426975,0.6056915900396639,-1.1640665274502051,-6.050678746104506,7.542464590770329,-0.0036075557218335197,0.003600646329733384,0.00401388449286271,0.6977564773703068,0.1494310389931336,-0.34099824126703804,1.2936014962711615,-6.084358156903933,7.7067137804316825,-0.004266556013531395,0.00010759238971262005,0.006091938251580938,0.06204695736727079,0.42912985494800243,-0.810530344465135,0.291263359345613,-6.11001230274906,7.689965440690604,-0.005053721805574484,0.004826660123347986,-0.0032153795989810267,-0.28520805397028776,0.43084986736298636,-0.40960252375538225
2.2928667869253125,-6.164632034015882,7.189481757478351,-0.0036612527969485495,0.0010048742963175365,0.012370585944305014,-0.5461161882256222,-0.09835307605806641,0.0708798753302574,-0.07320814065320887,7.579481997147056,6.199934212827728,-0.010435819759599995,-0.0027554876990115934,-0.011714465437472515,0.2746379575714771,0.36146018048504674,0.6107290760997753,-1.1838035141544736,-6.032380598018526,7.557524196756513,-0.004395936970005294,0.0032148710702657552,0.002581579198341393,0.6955682688163191,0.15703144820665382,-0.3381476278047652,1.2930894406118232,-6.063350720577265,7.686757597455404,-0.00343369774513953,0.0016259254727730608,0.006121463726267715,0.0624093426802922,0.4374189150633316,-0.8070938478058372,0.2611267464977448,-6.11704537871191,7.693504290723946,-0.007538224425033118,0.0025073204824832915,-0.004104259435751335,-0.28997924302926537,0.4396867946067345,-0.40615036416286704
2.300267430105291,-6.196589418379142,7.1718405039179745,-0.0022217998258848475,0.0023620120511840324,0.01123794908351873,-0.5453728949263312,-0.0876122236014996,0.07161929779238019,-0.05206505464131618,7.569787387446893,6.223538636219441,-0.010067114508709254,-0.0029398572038937445,-0.009232233916514992,0.27316680679307614,0.3607101117149858,0.6097755551365082,-1.1753407707140568,-6.0489635870419685,7.568580906326274,-0.005079353257946488,0.00276003069954718,0.0020616095698617392,0.6953343382726593,0.15607562890560467,-0.33642586157078197,1.2966778288391458,-6.072362155094945,7.687097654602918,-0.002817711996847684,0.006259805319896622,0.005443950537965477,0.06213751307370963,0.43669117574659305,-0.8083123137068201,0.28117134244911346,-6.1399322334151805,7.6910963142004425,-0.00753922435100656,0.0025073304479055008,-0.004104252454491037,-0.28947741759371937,0.44090184966151186,-0.4059097556715396
2.2965506125319495,-6.202776362148283,7.207830961527236,-0.0007446710059678921,0.001691101577062626,0.009049237456765462,-0.5485567977063801,-0.0922468668663526,0.07016520360879018,-0.07237983403754542,7.5866638685981265,6.211991459636629,-0.007736005248635209,-0.0012255178308113583,-0.011400207885799799,0.26859275840948754,0.36670670155176127,0.6194881314020553,-1.177845601015483,-6.037862115870237,7.552340966579333,-0.0018996657960909618,0.004331772948067545,0.004477067900931624,0.6904830002699064,0.15883173994010902,-0.3300840645424524,1.2864786805138837,-6.064795767206148,7.705735186031613,0.00040312671107635715,0.005928614594472921,0.006304281707301749,0.05592658483090142,0.4411113144411569,-0.8023267662562099,0.2788327583881236,-6.144414510810197,7.711759752731911,-0.002351433896215791,0.0036407085371696806,-0.005377399462482514,-0.29648704017369126,0.4443897889345681,-0.4007333936368842
2.2724217892303615,-6.15135403657278,7.190505851787678,-0.0027360881499305734,0.0006582496499550519,0.013493853824395148,-0.5522201136305604,-0.08516343731332708,0.06896827954813652,-0.055170893539631,7.579513403303326,6.200283569689798,-0.008946186434842053,-0.002991834219595052,-0.011052430785827527,0.2665828869959253,0.35654884409661647,0.6098887625258268,-1.187249340766965,-6.034089520032261,7.555619840826645,-0.002556588578702236,0.004720592676591267,0.0023227859610739365,0.6894780521879577,0.15069709791173275,-0.33657450423655333,1.285410053496004,-6.073505224502752,7.735604646420032,0.000324664730836369,0.003994011428387607,0.0063329924618982575,0.0540801917472663,0.433079657264113,-0.8069570542139013,0.2715992798908159,-6.128066169503215,7.686426053113825,-0.006390943081680663,0.004451948948169475,-0.0021250508440060416,-0.29466898575377154,0.4328971512462033,-0.4036771568899649
2.2813893692155793,-6.201122145337236,7.188779765689602,-0.002932059554952197,0.0011510081609272722,0.01280824004224204,-0.5532498885897653,-0.09662898048343721,0.05944145015175622,-0.06994304392355401,7.564766510201999,6.224518576991072,-0.010387316612355197,-0.004544011210611484,-0.008853787704283796,0.2725210198669777,0.35744397319096644,0.6200837002357973,-1.1827121636877507,-6.0281873635248315,7.559369641049813,-0.006078330767687307,0.0033304153728170235,0.0004850531136791884,0.6941699401441528,0.15448762625038803,-0.3261458585277204,1.2906184372259555,-6.068849816396874,7.746409634540769,-0.0036458024831735217,0.002817902315139839,0.0041714632679690855,0.060634834319244706,0.4347136956822696,-0.7960821351244739,0.270315574668862,-6.099877120189592,7.694658668111339,-0.006885994193144156,0.001153749099760268,-0.0038649244477463383,-0.2911687270289021,0.43652433390779843,-0.3971091155686577
2.2925479657072345,-6.185860037424241,7.199418699630018,-0.0033230084237109783,0.002134525483845345,0.011436005857586846,-0.55634927826988,-0.08394490864638283,0.07338420677457808,-0.07075444688309065,7.576011389408021,6.22190895673532,-0.011562772530731914,-0.0011896949971067835,-0.011731038496928164,0.2739542331010756,0.35959340033564086,0.6166220406951515,-1.182588431571135,-6.035112360563684,7.566216898046247,-0.005656147300573011,0.0014220841883187366,0.0007725026055324841,0.6943783832524766,0.15318564160237844,-0.33296807667484374,1.2923875091746506,-6.082701936414791,7.706721462934489,-0.0033931006364494518,0.0016314517437393194,0.005484645592814204,0.062216956222989964,0.43545681413299353,-0.8034335711236432,0.26764758487763274,-6.145844280010756,7.721342942627418,-0.008748203022830955,0.0023073936842935142,-0.005521864835090928,-0.29020885477490915,0.4382239377663088,-0.40199878743700945
2.2874677061638655,-6.177792218292431,7.1976894580539446,-0.0016468704076696631,0.0009312950074094297,0.011618876773144477,-0.5534171860347978,-0.08980687811430038,0.07458476084756853,-0.0690960012400951,7.583515689542493,6.188678548604498,-0.009462447342782452,-0.003349370867897774,-0.008601743490383042,0.26610022119218035,0.3587629071493581,0.6110796913735669,-1.184366522621299,-6.024557104366294,7.549653526293346,-0.006445198416810909,0.0018523268911903661,0.001019641336996093,0.6875330914198006,0.15340345810716846,-0.3346430837481845,1.2805954992878512,-6.067324251760111,7.704725206565469,-0.005864339998471779,0.0034709481767190692,0.005923515606196593,0.055330051094493474,0.4347775495916823,-0.8059973332877306,0.26184596660298165,-6.097016375595471,7.683415767214436,-0.005723828842217895,0.00463931944037938,-0.002669704761787811,-0.29682932840578174,0.43658086342446467,-0.4036617551486906
2.2915386618136147,-6.1974639861263,7.200045764355805,-0.005695587415602972,0.001132010900605262,0.011452420412826974,-0.547397132506446,-0.09321285209372417,0.057463611418652694,-0.06743213644105012,7.5665261681364715,6.230409668279447,-0.012710587634275381,-0.002180210376448053,-0.010134129992546674,0.2670659150092132,0.36217498802923354,0.6105332634085683,-1.1848483420426634,-6.0258397032637605,7.548554267855392,-0.007470663147797764,0.0015780634262771802,0.0010784089923506419,0.6909446823535054,0.1546156897747621,-0.33565188634787696,1.2871853630937542,-6.0766860205209055,7.685276058365894,-0.006450251466659327,0.0033010047316575607,0.005886529434092181,0.055825670924461904,0.43721765559424886,-0.8064881211037783,0.26958012333124853,-6.13722179726294,7.703361764262558,-0.010004845357887041,-0.00039322290675754,-0.005183319313950019,-0.2943768160774062,0.4389975766042255,-0.40563171319035957
2.300971053565248,-6.205916592663286,7.196405774991176,-0.0016488601884641673,0.0009322944073461879,0.011620887238801043,-0.5536894220128689,-0.09199851254421264,0.06896896205328583,-0.055864235667057324,7.565551101475004,6.236664150407388,-0.009825156957022844,-0.003171019808213266,-0.011085932218166618,0.2734401933021063,0.3602771683924618,0.6134423989968549,-1.1810072199160961,-6.042693832312923,7.52318989771137,-0.005446222745153853,0.0012839420758118914,0.002596174022697379,0.6931627176389478,0.1502606198061219,-0.3324377309314759,1.2886489049002123,-6.0641767962181365,7.685356666825622,-0.0018058730911532318,0.002729514850960811,0.005572395988893203,0.0619636258458653,0.43277108258938546,-0.8029488590485978,0.27972143323667814,-6.138701935173271,7.703262839197812,-0.006217958309897727,0.00423427135499483,-0.005399357142164615,-0.290510254293986,0.43212262989760397,-0.40150820245845764
2.289857070405743,-6.179389380888818,7.191905482244836,-0.002227747510902044,0.0023690065363665917,0.011247984133093454,-0.5470680883834159,-0.08981109400154884,0.07479940063770527,-0.053469371391796035,7.586240518489648,6.198545855774795,-0.008910724636917288,-0.0032535410692189517,-0.010027662038378682,0.26973391439156563,0.3645950289516131,0.6087672115322702,-1.1776746910777391,-6.037643422195723,7.550870324246913,-0.00303008031122427,0.004127610193365848,0.0036264877497591778,0.6872794083980873,0.15680650076895028,-0.3359022920576342,1.281320849938586,-6.091651178377114,7.683988036319643,-0.001557922024109747,0.004075894893780933,0.005565911496030486,0.054604939716354516,0.4391809429170375,-0.8071925302219263,0.2598314985171174,-6.118361713326961,7.703669465678166,-0.005611456210003986,0.0032731617683845293,-0.004391650059054518,-0.2955784991408086,0.44145168681795466,-0.40635512861319895
2.3035715723753305,-6.188276769086931,7.175370461085425,-0.0033081247844194838,0.001105219436421784,0.011755983259943212,-0.5536971305997564,-0.09126492700248517,0.06726065943645922,-0.05181381476573908,7.569423181736228,6.240020438084688,-0.010682666371444632,-0.003594879479473263,-0.010090809319597117,0.27249176445424095,0.3507726823976546,0.6148115917134034,-1.1707203301580487,-6.04236995279659,7.546445835838323,-0.004632342611795889,0.002513388469327897,0.0023951722963473023,0.6943919266038279,0.14416489997085147,-0.3318838004208982,1.2916882189184535,-6.095250771664939,7.695480166478909,-0.0019327362771526717,0.0033222449744451966,0.004915312483734037,0.05876323893584148,0.4261976479473544,-0.8019336006415446,0.28155513605657456,-6.143193163313018,7.687839271881363,-0.007528275726616111,0.0011551506301310588,-0.0039004415911215065,-0.28931561958915764,0.42844851656633937,-0.40005282616655147
2.3142394979476952,-6.2110150794262164,7.209473754077405,-0.0016737347065850752,0.0020071579882628286,0.009623979994894278,-0.5519632404519629,-0.09249098446367882,0.07262229445361917,-0.046323920692334396,7.574870989425589,6.241483787818189,-0.0076740692297778915,-0.0017388890739010205,-0.00934674960856681,0.27515779041238575,0.35270214054391924,0.6128088319044619,-1.1736856969054126,-6.038204553578537,7.5617445201741695,-0.004529042139775162,0.0032603523552222884,0.004987957278880534,0.6946306120559368,0.14708909812781432,-0.33240789429967016,1.2879121175829642,-6.060909784230155,7.715088450460639,-0.002727738575743121,0.0037369945749989478,0.005491906026948325,0.06189393513874171,0.42764997710749625,-0.8049160295670594,0.27819337781759645,-6.153664675361505,7.716178518765517,-0.004424372890157446,0.004054342316112147,-0.0027858296632461647,-0.2880872103106442,0.43185450770066175,-0.4037231944093003
2.288306688932871,-6.183257455516942,7.177909139831197,-0.003309113944104228,0.001107218207419231,0.01175798986842965,-0.5431799364946102,-0.09396060001547832,0.07160292027174975,-0.05581878394452777,7.5657684408190695,6.199599323148242,-0.008095145244193719,-0.002340346353466693,-0.01308104125905973,0.2717355507030532,0.3610169511443563,0.6141767314076152,-1.167313858431304,-6.0372855952415785,7.549379356526454,-0.005446218299153731,0.0012849538947625279,0.0025971620523751794,0.692662825892707,0.15463747132809896,-0.3339522186325179,1.299547548345094,-6.064636214779599,7.716771812673551,-0.0029804686285387614,0.004315187374919218,0.006740355307669921,0.059772094280728036,0.43938410429856944,-0.8050873667696195,0.27098436439150214,-6.137477583551319,7.6907116310846275,-0.00628057030141364,0.0030858112070190425,-0.003846982178752153,-0.2924064289458346,0.43971095024188284,-0.40418037050000954
2.2935412524316803,-6.194290639801598,7.16587172833546,-0.002960853518554915,0.0021933072200533343,0.012505341413976785,-0.5448695204563008,-0.09835882766951137,0.07624497257000067,-0.060110553492100455,7.567944776515085,6.232059843539768,-0.012103912947663354,-0.0025937200296492595,-0.009503595622877883,0.27081263183238263,0.3491117640422448,0.6182678830574417,-1.1736383862727862,-6.0448548587858015,7.544001828936529,-0.004842922778238927,0.003469584072080226,0.002253920879441371,0.6936695921231997,0.14222883159161057,-0.33039177825986993,1.2697900353062077,-6.086064267594819,7.6822562719521805,-0.003271017390314732,0.003572558103360152,0.0048200654383913,0.05951640736466109,0.42790025182338914,-0.8014540264980168,0.27281740719232594,-6.127469059668205,7.673833294769355,-0.009491901583386681,0.002322772981859386,-0.003630625842199306,-0.29226438411908595,0.42725686082479725,-0.40100836859924904
2.283088149880467,-6.223722252300677,7.200690810542747,-0.0011334872192028697,0.00260248821782715,0.01105996626577019,-0.5514973378334409,-0.09419621224724752,0.06822443202327874,-0.06444027770014696,7.5822001613227,6.2161388356172464,-0.007406216842235007,-0.0009275461623866671,-0.01097615188499304,0.28197093779653043,0.35561024258809165,0.6105152078675713,-1.1906286304252807,-6.037400503407452,7.550769925827967,-0.00373832653532741,0.0020140806552053215,0.003060369230925358,0.7012018959793856,0.1509627191849066,-0.33566348387814543,1.2808435769882418,-6.0546397121633255,7.694157394177271,-0.0021002189792144453,0.003911454669051423,0.004893053097126912,0.06796951442865547,0.43201331035065627,-0.8081858046818197,0.26944072420332665,-6.138132429978266,7.702027625611251,-0.004350785361937592,0.0038526224599684843,-0.00413339375275281,-0.28073505290114203,0.4356874544691709,-0.40523922128758355
2.3060059040915837,-6.17368853461767,7.206974734295943,0.000697922273961393,0.0029731061672904437,0.011301556008688719,-0.5573605097498165,-0.10273775204405383,0.06848854370155122,-0.05750392149997538,7.571318451084061,6.191241542612853,-0.005921590752667309,-0.0011558875837844706,-0.010313197460127385,0.27323059024796814,0.3551975921658238,0.6166931782753463,-1.1756840216765718,-6.0459803395384375,7.542780081879962,-0.0014261329813166665,0.004926850409223953,0.0031813416611125886,0.6951161745252309,0.14830652761739058,-0.3326689968203846,1.2895276738207813,-6.0714916465677335,7.695516006348802,-0.00013816597718917362,0.005762164774564599,0.005632399512953095,0.06295409961579168,0.42958486075119584,-0.8010217178734548,0.25906528473630125,-6.117216026573197,7.7040169225882105,-0.0018145182541416125,0.003656324225627307,-0.003412098278549103,-0.2882676619282631,0.43429732930977205,-0.3981055852381526
2.277009775283333,-6.162581290711323,7.204931665785034,-0.00022922484128394007,0.0033247292830487383,0.010181302282447789,-0.5522357168062885,-0.09321839337393566,0.06676385277399033,-0.060721669815729254,7.599401624840835,6.192055206255453,-0.00890072173305963,-0.003267566393782969,-0.01003053121688279,0.26661052119798134,0.3590514082486391,0.6140018380194068,-1.1904429654699917,-6.02054145609432,7.56269048979189,-0.0017708405327159125,0.005923467346980759,0.005441533551944997,0.6870455471416008,0.15291507544462474,-0.33463466046371115,1.2758845990795225,-6.042054962253557,7.723897462146417,0.0004088852543577911,0.004001035131190728,0.005062290462601525,0.05295040015888246,0.43356243169237574,-0.802051531732225,0.2671173895603267,-6.102026728184922,7.7160693285046555,-0.005073601447323036,0.0032847679511352874,-0.0024293558530845325,-0.2948384976727214,0.43729298212757184,-0.39928048387827286
2.2812430099016074,-6.185431293018778,7.1858069918213845,-0.0060506889943803,-1.5206858404408501e-05,0.01409208502829665,-0.5483065517588374,-0.09713182954824011,0.07211249674602062,-0.07281069528907229,7.58124461965638,6.207569936766697,-0.010720591022115384,-0.0031125514269577186,-0.012149992500042233,0.2756635523955819,0.35739141850768585,0.6161534976568033,-1.2074689909846348,-6.018661670222837,7.577355732212392,-0.004502540661486881,0.004107036021311543,0.0033556091416174693,0.6961013563523424,0.15224020787835757,-0.33052387132941496,1.2964344324982322,-6.062020040507872,7.736905759104988,-0.0025214247972248994,0.005079863837712682,0.0061192637941371985,0.062250377577501424,0.4352070635387805,-0.8014815842759023,0.2586948162848259,-6.119184405250109,7.702466299645407,-0.00887252928934539,0.0029026253750770903,-0.0034088936536164844,-0.2860391931569763,0.43744927765684677,-0.39812086767162674
2.283167291894078,-6.184338777652808,7.193663897763839,-0.0027580307928424686,0.0007118063658994354,0.011825988662399343,-0.5509945825792378,-0.0893167872476918,0.0706675852784148,-0.06117012848912768,7.580325244513737,6.213794019825521,-0.011498251691736924,-0.003004246701834241,-0.008874097970384767,0.27444002712563403,0.352237358279271,0.614530580814919,-1.2024376577651763,-6.047023022587807,7.567683132558486,-0.006574993462412722,0.00026871429867841916,6.208538407490027e-05,0.6997450710022124,0.14779929648979,-0.33464196792726375,1.2710499108273712,-6.100494904117319,7.742300051623572,-0.004820431631617433,0.004406583602230392,0.0053364315643935996,0.06588575854820589,0.4305429230634218,-0.8013165848093575,0.2579999074948826,-6.112671237083448,7.707083829960029,-0.005647242624321886,0.002313453799170348,-0.0034204600949501417,-0.28686580052145155,0.43086626089604246,-0.40226677126336224
2.2723817074289197,-6.184462671297993,7.219304659299128,-0.004609281185146964,0.0013774901767888005,0.011272451808240325,-0.5529588001925775,-0.09785942259411212,0.06944903511303935,-0.08718245530991639,7.603411171311412,6.220152139222076,-0.010064562541545634,-0.0027312406497463724,-0.01026750857610986,0.25632082948627394,0.35994455448321006,0.6096729115610696,-1.1957735638347748,-6.012551765598393,7.568329570998314,-0.007815366402406173,0.0025817036466636812,0.0033405175163354894,0.6789759451918822,0.1553257904840511,-0.3365731950576202,1.2798787519305321,-6.061023675333023,7.733884478022627,-0.0049841419167038535,0.003070227181823951,0.004072222538877879,0.045804930631842974,0.43801958939332514,-0.8072819511673199,0.23748910122959263,-6.111938972928849,7.717313323571916,-0.00805620273309911,-0.00020862514389594896,-0.005661917879353323,-0.30539415787187385,0.43837540050161367,-0.4089729395641951
2.306128979889947,-6.19896120704438,7.1946275455567985,-0.006251745556438936,0.0005566758629989276,0.010032528967369114,-0.5558772123819065,-0.09224294443152785,0.07093221964046326,-0.04567171256918141,7.558120091058554,6.209357784371428,-0.01326073520791421,-0.0020713951487748017,-0.009741419038477748,0.2682266530460581,0.3627963086428833,0.6029459096600684,-1.1647852831212646,-6.024623468421612,7.544238800496553,-0.008941476173227696,0.0007484359796874231,-0.0008750019588039297,0.6901508358071722,0.15765821464838267,-0.3466707404649926,1.30055227745879,-6.0734098720721965,7.716289828109345,-0.008367997714261685,-0.0004657305858853005,0.003263427381677452,0.05814080758865802,0.441376376713015,-0.8150638535437756,0.28007898173536355,-6.131385999158515,7.69547279007736,-0.01062730668847059,0.0019211165361543926,-0.006397802263566949,-0.29246171623804884,0.4411757486634076,-0.41419010101084847
2.3082287638473695,-6.19813954565531,7.2022063576598825,-0.0066336026348638,0.001464065532327723,0.012035220695931504,-0.5514676072087934,-0.09517910183325516,0.07457045299327844,-0.05520673023179829,7.578860573619903,6.233354247262778,-0.012692996467449489,-0.003501421487056211,-0.009334466468272082,0.27856494337585785,0.35636254114818783,0.6122397202284503,-1.1673746294198495,-6.049603278665976,7.5377891537696735,-0.009417635906103559,0.000969469890512147,0.0021081783775239154,0.6985050466771432,0.14995736919992098,-0.3378342462439247,1.3086999427018375,-6.061279361876198,7.676952770091848,-0.009333523874504004,-7.200890581888234e-05,0.006379441417674948,0.06874464310102155,0.4312675099589847,-0.8055164798014316,0.28611128420228216,-6.148366599229831,7.732153096280629,-0.009345750380186691,0.001918343458704767,-0.006327747008666272,-0.28319070025603177,0.4330267646751687,-0.4035132685395294
2.2726517629326235,-6.1812191825608025,7.189405023367623,-0.0016469734401892318,-5.345129236544248e-05,0.010262947307993727,-0.547336035965438,-0.09444585909315426,0.07040132848744166,-0.06723201096296147,7.572604329387158,6.200792358566988,-0.009487380941613357,-0.0028830923761274337,-0.010665789198152545,0.2769131211966325,0.3503434909879449,0.6182020936364734,-1.1833666746744727,-6.035965018702819,7.5124626379660455,-0.005682635590070213,0.0005844474427604492,0.002408743435303589,0.699785079999649,0.14568664572118928,-0.32753545851616356,1.2807777506566564,-6.08332643705551,7.632041727402662,-0.005279504623115432,0.0036429130083215078,0.005955526236052087,0.0651604999900063,0.4271248885769288,-0.7996043540209111,0.2620847164639891,-6.1289863308644765,7.682746302053478,-0.005190955752232321,0.004649975151799714,-0.0007033757644469907,-0.2880655197604769,0.4294130552493704,-0.39713139765514316
2.285288449225454,-6.198557338684729,7.187404485750151,-0.0025889236867362568,0.0012949108357806136,0.010516705666302252,-0.5497963060430946,-0.09199847497051247,0.06626531469379579,-0.0631324829780874,7.551994417836143,6.21165012952426,-0.01005756124837283,-0.002740256976932259,-0.010269428924511976,0.27346129639099087,0.35517256076873976,0.6149825160922338,-1.184710862142156,-6.04350692370919,7.543414156279799,-0.0027919683291389636,0.004020170309822728,0.0021413613728431765,0.6953587716364151,0.14805694026594574,-0.33315637223589484,1.282494249116479,-6.079119994859407,7.662137288139892,0.000280576162260774,0.009053103259231123,0.0043313661118485345,0.06018859586476259,0.4301055213812525,-0.8056102840450768,0.2548282590545051,-6.112890769462238,7.657203735756978,-0.006856211330359375,0.002114516985898522,-0.004838072458097166,-0.29098484681835246,0.43432449017889957,-0.4027257275043884
2.3061789831803856,-6.21387455386117,7.180904303651436,-0.0016826673791649558,0.0020151515736645284,0.009637030280446955,-0.5492647253967351,-0.09322839014394567,0.07553874149744151,-0.05107637637286215,7.551764009128925,6.239376753035808,-0.008856807373307254,-0.002252085398104877,-0.009809973114732428,0.26863993436617667,0.3609164870575814,0.6242137119526862,-1.1709488474145429,-6.052974437298054,7.5593592479095655,-0.001450952187394607,0.003268185021791907,0.00313719260059529,0.692956631098795,0.15328018650593095,-0.32490388694030037,1.2979707827595954,-6.085845940155699,7.724484880076266,0.0017863220209866,0.00821358338355047,0.004447872709374896,0.05987887887503377,0.43570061244324293,-0.7977749318261712,0.2974556128192644,-6.167748385982881,7.718922895356636,-0.005479162176090865,0.0013297802185297642,-0.006303789290458728,-0.2908972152034734,0.4379866709014071,-0.395401842056365
2.313260801353666,-6.19755636233434,7.205052871448601,0.0005337034991242674,0.0013992531878748316,0.011253880090495216,-0.5519620900616171,-0.08882876032438189,0.0723816847485928,-0.04850776141654934,7.573227558318525,6.22293663431994,-0.0074540453233881716,-0.003008610127660995,-0.011428834123243307,0.27173156803250453,0.35708956107635986,0.6127700856127762,-1.1808247523916264,-6.043180516606209,7.555009412698264,-0.001083069377001144,0.004747309957577978,0.002605586861204848,0.696570114424538,0.15317591582946816,-0.333955803802524,1.2850086353148664,-6.091338302979897,7.742789475052077,7.365574252882761e-05,0.0026416545969806284,0.006338514086270034,0.06047807454300195,0.4322957896226961,-0.8038997422813748,0.28817268093635634,-6.1276697423519115,7.710808987213261,-0.003202500704814681,0.006568285917332954,-0.002538134421938104,-0.28999504754197963,0.435535682057979,-0.4024885258506333
2.2897439186388997,-6.1754458275981445,7.196792740998093,-0.002239594858996109,0.002344434043637485,0.01295603824024118,-0.5437118476533238,-0.08955723302856698,0.06184343433765386,-0.06761637371732603,7.560461919871624,6.190157778254153,-0.009739773785616312,-0.0024292634316946437,-0.00984247325546036,0.2739398384839398,0.3661800222836792,0.6162799572132109,-1.1713923839346743,-6.024475176313755,7.555795467935403,-0.004394249481962236,0.0024089127026069735,0.0009070105189541021,0.6963296770643582,0.1592995934638631,-0.3323181850722206,1.2860375094504786,-6.069634301601309,7.713653155720849,-0.002182020791920893,-0.000558913632053026,0.006237566658203359,0.06300530799110551,0.44301898028153736,-0.8031813933460192,0.2625825531942143,-6.1270870075630395,7.671841726335613,-0.005070630200256898,0.0040567834844612806,-0.0028193189128661676,-0.29012100343987857,0.44481533419025576,-0.3988247497363334
2.290112530159841,-6.200659630937647,7.169284252986144,-0.0020349156640190108,0.0009330632157057733,0.008891701539965612,-0.5544353374362977,-0.09028633486857598,0.06604508298804693,-0.06072159105914929,7.579596229188501,6.230870807926023,-0.010652659556051504,-0.0036359555657756604,-0.010099431741764961,0.2670835480659068,0.36392380468802227,0.6131924428626959,-1.1762802920555961,-6.043795230135271,7.565960272140857,-0.006236265103786526,0.0017222190250649786,0.0028462227925794333,0.6924058830338626,0.1572998506280099,-0.3359356645810364,1.2947290149422153,-6.065037038464405,7.704869184299153,-0.003938473316315193,0.0014690463074132263,0.00480684760350781,0.05901832206683559,0.4393926057456854,-0.8062940063906168,0.26826684842678356,-6.116052685347888,7.704917812061725,-0.0069109102652613885,0.0017350230412185091,-0.0036796954156486416,-0.293606172077101,0.4416759998025539,-0.4039278182418811
2.3003259343471663,-6.193805489918179,7.194582077512999,-0.0026097489639615116,0.002333210439101798,0.010207765151685663,-0.5544352194418243,-0.09932046139107775,0.06725671286614808,-0.052134757742897,7.59419014988539,6.197484873173617,-0.010934522353688556,-0.0029244384421373056,-0.010302871526658711,0.26828692024447626,0.3631576874467571,0.6107531589980175,-1.1753426545671282,-6.015599956689843,7.56237669483908,-0.004157820691129151,0.0031144544693523304,0.0010983694545778305,0.6906844805765721,0.15653640578385644,-0.3383595580502238,1.2911534777077387,-6.057664306312353,7.684214702168173,-0.006032914447925128,0.0040651850731578424,0.005894289489411844,0.05649943014422609,0.43575570472124503,-0.809189976421649,0.26748860308726546,-6.123067397160291,7.7117528008971545,-0.006284560039520506,0.0030868510190480408,-0.003846954236258094,-0.2951100084133793,0.43949292072724316,-0.4063585695711268
2.281109567916225,-6.169387221736359,7.194480622140988,-0.0036941242927249953,0.0010724258505181894,0.010715786182312495,-0.5512234719779988,-0.09127280471609314,0.07408490503319977,-0.058152090471511285,7.569359574938538,6.195646392920279,-0.010391263776173824,-0.004103811614953186,-0.010925609061418639,0.26904406497379985,0.36246973471062227,0.6136879385283573,-1.1601281789138425,-6.024588861415268,7.554110243337208,-0.004975365283068437,0.0027010353625839174,0.0029798312485958853,0.691200689982324,0.15439803812142033,-0.33345348491688576,1.2886437410436276,-6.080665264399996,7.703065086273739,-0.0025204496905698683,0.005078860111418448,0.006118243156817883,0.05973916438537495,0.43645634063152555,-0.8058275285978228,0.2712986333297904,-6.136421439846179,7.677923217519665,-0.007028291482484167,0.003098230428227943,-0.0019547153375473877,-0.2924027787324759,0.43922186826761933,-0.4029594087895563
2.278492601662685,-6.211886901539326,7.195895711280602,-0.001510452802649365,0.002524129374481478,0.011705703705110957,-0.5402359652710652,-0.09396515916431472,0.07451787372748474,-0.06836820602246375,7.577453185963126,6.223797188248872,-0.010076477924102158,-0.003787809072337441,-0.010497704562265031,0.2680614018208601,0.3524118270184337,0.6106710243792193,-1.169605858953952,-6.049447567841769,7.535917113731274,-0.004395897875046081,0.0032249773697671682,0.0025904595802009704,0.6887446416938553,0.1465341622077894,-0.33749715063251134,1.2882341458944226,-6.081087880361375,7.693291577100317,-0.0011821573737216798,0.004827544061459445,0.0062144872096113555,0.05452584759898384,0.4294173624307355,-0.8079520172359511,0.276835795091591,-6.1254696546788425,7.7109563221159965,-0.005637314387775212,0.003857445178184151,-0.004202414090815709,-0.2966408226076467,0.43169575928716253,-0.4046395200139736
2.2914335025819597,-6.187636885653964,7.19244829689338,-0.000396475360140365,0.001792436865690478,0.008448659442261551,-0.5561115411998035,-0.09541905537690493,0.07337242153124171,-0.07362380833764354,7.578542182089,6.1905351208485655,-0.00739065613969621,-0.002236777085652432,-0.010177651256251165,0.27516830419610583,0.36423670238766037,0.6167884360975021,-1.1832304803853966,-6.030234476103752,7.563451109277077,-0.0020045646869430297,0.004404992345165609,0.0035776835878670683,0.6990276858428452,0.15761623313953266,-0.3303594781901997,1.2977207678283913,-6.049576858677455,7.715138737435647,-0.001179395976397375,0.002902987568422069,0.004971558539175075,0.06446779613945809,0.4400763618907572,-0.8022391728717295,0.27753397208260466,-6.13433893928974,7.70444051768522,-0.0049761372802457305,0.0032748297599643583,-0.004355084018868109,-0.2845258922466099,0.4428054753798763,-0.398863983615809
2.2886864793872546,-6.155808735342083,7.204997118363622,-0.003505067516689168,0.0005471037746603813,0.013096422914796345,-0.5522264473765427,-0.09517343102698117,0.06895902016005603,-0.058597194743775026,7.58773909194632,6.183037199538169,-0.01095297407659956,-0.0026847584559016365,-0.011331444828917566,0.27338487066393874,0.36433574552632586,0.6072774815558682,-1.176363607146669,-6.03479763100231,7.559148158046234,-0.004081352733558197,0.00219971580056502,0.0036440520387367725,0.6948227816940893,0.15920544398882214,-0.3401226450932222,1.2792161876758272,-6.095737567359874,7.711753379948729,-0.002185513446630456,0.003901446591090575,0.006160765088157898,0.061099843879093625,0.4398853028878329,-0.8129230284505601,0.2479807587448145,-6.100599692149856,7.701539686451755,-0.008230310179780804,0.0036712695476692546,-0.0037653186124088976,-0.2892745544453916,0.44163298787172806,-0.41299128075167674
